ExperimentName,Subject,Session,Clock.Information,DataFile.Basename,Display.RefreshRate,ExperimentVersion,Group,RandomSeed,RuntimeCapabilities,RuntimeVersion,RuntimeVersionExpected,SessionDate,SessionStartDateTimeUtc,SessionTime,StudioVersion,Block,explist,explist.Cycle,explist.Sample,filename[Block],insprac1.ACC,insprac1.CRESP,insprac1.DurationError,insprac1.OnsetDelay,insprac1.OnsetTime,insprac1.OnsetToOnsetTime,insprac1.RESP,insprac1.RT,insprac1.RTTime,pracCat.ACC,pracCat.CRESP,pracCat.DurationError,pracCat.OnsetDelay,pracCat.OnsetTime,pracCat.OnsetToOnsetTime,pracCat.RESP,pracCat.RT,pracCat.RTTime,praclist,praclist.Cycle,praclist.Sample,pracRate.ACC,pracRate.CRESP,pracRate.DurationError,pracRate.OnsetDelay,pracRate.OnsetTime,pracRate.OnsetToOnsetTime,pracRate.RESP,pracRate.RT,pracRate.RTTime,Procedure[Block],Running[Block],speaker[Block],syllable[Block],token[Block],tone[Block],waitprac2.ACC,waitprac2.CRESP,waitprac2.DurationError,waitprac2.OnsetDelay,waitprac2.OnsetTime,waitprac2.OnsetToOnsetTime,waitprac2.RESP,waitprac2.RT,waitprac2.RTTime,Trial,block1alist,block1alist.Cycle,block1alist.Sample,block1blist,block1blist.Cycle,block1blist.Sample,block2alist,block2alist.Cycle,block2alist.Sample,block2blist,block2blist.Cycle,block2blist.Sample,block3list,block3list.Cycle,block3list.Sample,block4list,block4list.Cycle,block4list.Sample,block5list,block5list.Cycle,block5list.Sample,block6list,block6list.Cycle,block6list.Sample,block7list,block7list.Cycle,block7list.Sample,expcat.ACC,expcat.CRESP,expcat.DurationError,expcat.OnsetDelay,expcat.OnsetTime,expcat.OnsetToOnsetTime,expcat.RESP,expcat.RT,expcat.RTTime,exprate.ACC,exprate.CRESP,exprate.DurationError,exprate.OnsetDelay,exprate.OnsetTime,exprate.OnsetToOnsetTime,exprate.RESP,exprate.RT,exprate.RTTime,FeedbackDisplay2.ACC,FeedbackDisplay2.CRESP,FeedbackDisplay2.DurationError,FeedbackDisplay2.OnsetDelay,FeedbackDisplay2.OnsetTime,FeedbackDisplay2.OnsetToOnsetTime,FeedbackDisplay2.RESP,FeedbackDisplay2.RT,FeedbackDisplay2.RTTime,filename[Trial],insex1.ACC,insex1.CRESP,insex1.DurationError,insex1.OnsetDelay,insex1.OnsetTime,insex1.OnsetToOnsetTime,insex1.RESP,insex1.RT,insex1.RTTime,Procedure[Trial],Running[Trial],speaker[Trial],syllable[Trial],token[Trial],tone[Trial]
assim_main_vietnamese_500ms,418,1,<?xml version="1.0"?>\n<Clock xmlns:dt="urn:schemas-microsoft-com:datatypes"><Description dt:dt="string">E-Prime Primary Realtime Clock</Description><StartTime><Timestamp dt:dt="int">0</Timestamp><DateUtc dt:dt="string">2018-08-28T05:21:29Z</DateUtc></StartTime><FrequencyChanges><FrequencyChange><Frequency dt:dt="r8">2742275</Frequency><Timestamp dt:dt="r8">10321096558</Timestamp><Current dt:dt="r8">0</Current><DateUtc dt:dt="string">2018-08-28T05:21:29Z</DateUtc></FrequencyChange></FrequencyChanges></Clock>\n,assim_main_vietnamese_500ms-418-1,60.014,1.0.0.84,1,1731572990,Professional,2.0.10.353,2.0.10.353,08-28-2018,28-Aug-18 5:21:29 AM,15:21:29,2.0.10.248,1,,,,Thai_F1_maa33-4,0,,0,-1,19852,0,g,799,20651,1,,112,189,18353,1499,,0,0,4,1,1,0,4,1,17,20668,0,2,2531,23199,pracproc,praclist,F1,maa,4,33,1,,0,18,23218,0,,0,0,,,,,,,,,,,,,,,,,,,,,,,,,,,,,,,,,,,,,,,,,,,,,,,,,,,,,,,,,,,,,,,,,,,,,,,
assim_main_vietnamese_500ms,418,1,<?xml version="1.0"?>\n<Clock xmlns:dt="urn:schemas-microsoft-com:datatypes"><Description dt:dt="string">E-Prime Primary Realtime Clock</Description><StartTime><Timestamp dt:dt="int">0</Timestamp><DateUtc dt:dt="string">2018-08-28T05:21:29Z</DateUtc></StartTime><FrequencyChanges><FrequencyChange><Frequency dt:dt="r8">2742275</Frequency><Timestamp dt:dt="r8">10321096558</Timestamp><Current dt:dt="r8">0</Current><DateUtc dt:dt="string">2018-08-28T05:21:29Z</DateUtc></FrequencyChange></FrequencyChanges></Clock>\n,assim_main_vietnamese_500ms-418-1,60.014,1.0.0.84,1,1731572990,Professional,2.0.10.353,2.0.10.353,08-28-2018,28-Aug-18 5:21:29 AM,15:21:29,2.0.10.248,2,,,,Thai_F1_mii21-1,0,,0,0,25834,0,g,2380,28214,1,,0,116,24334,1500,,0,0,6,1,2,0,4,1,19,28233,0,7,1815,30048,pracproc,praclist,F1,mii,1,21,1,,0,17,30066,0,,0,0,,,,,,,,,,,,,,,,,,,,,,,,,,,,,,,,,,,,,,,,,,,,,,,,,,,,,,,,,,,,,,,,,,,,,,,
assim_main_vietnamese_500ms,418,1,<?xml version="1.0"?>\n<Clock xmlns:dt="urn:schemas-microsoft-com:datatypes"><Description dt:dt="string">E-Prime Primary Realtime Clock</Description><StartTime><Timestamp dt:dt="int">0</Timestamp><DateUtc dt:dt="string">2018-08-28T05:21:29Z</DateUtc></StartTime><FrequencyChanges><FrequencyChange><Frequency dt:dt="r8">2742275</Frequency><Timestamp dt:dt="r8">10321096558</Timestamp><Current dt:dt="r8">0</Current><DateUtc dt:dt="string">2018-08-28T05:21:29Z</DateUtc></FrequencyChange></FrequencyChanges></Clock>\n,assim_main_vietnamese_500ms-418-1,60.014,1.0.0.84,1,1731572990,Professional,2.0.10.353,2.0.10.353,08-28-2018,28-Aug-18 5:21:29 AM,15:21:29,2.0.10.248,3,,,,Thai_F1_mii241-1,0,,0,-1,32682,0,d,292,32974,1,,0,117,31183,1499,,0,0,7,1,3,0,4,0,8,32982,0,6,1970,34952,pracproc,praclist,F1,mii,1,241,1,,0,10,34965,0,,0,0,,,,,,,,,,,,,,,,,,,,,,,,,,,,,,,,,,,,,,,,,,,,,,,,,,,,,,,,,,,,,,,,,,,,,,,
assim_main_vietnamese_500ms,418,1,<?xml version="1.0"?>\n<Clock xmlns:dt="urn:schemas-microsoft-com:datatypes"><Description dt:dt="string">E-Prime Primary Realtime Clock</Description><StartTime><Timestamp dt:dt="int">0</Timestamp><DateUtc dt:dt="string">2018-08-28T05:21:29Z</DateUtc></StartTime><FrequencyChanges><FrequencyChange><Frequency dt:dt="r8">2742275</Frequency><Timestamp dt:dt="r8">10321096558</Timestamp><Current dt:dt="r8">0</Current><DateUtc dt:dt="string">2018-08-28T05:21:29Z</DateUtc></FrequencyChange></FrequencyChanges></Clock>\n,assim_main_vietnamese_500ms-418-1,60.014,1.0.0.84,1,1731572990,Professional,2.0.10.353,2.0.10.353,08-28-2018,28-Aug-18 5:21:29 AM,15:21:29,2.0.10.248,4,,,,Thai_F1_mii315-2,0,,0,0,37548,0,h,427,37975,1,,0,83,36048,1500,,0,0,8,1,4,0,4,0,6,37981,0,7,1858,39839,pracproc,praclist,F1,mii,2,315,1,,0,24,39864,0,,0,0,,,,,,,,,,,,,,,,,,,,,,,,,,,,,,,,,,,,,,,,,,,,,,,,,,,,,,,,,,,,,,,,,,,,,,,
assim_main_vietnamese_500ms,418,1,<?xml version="1.0"?>\n<Clock xmlns:dt="urn:schemas-microsoft-com:datatypes"><Description dt:dt="string">E-Prime Primary Realtime Clock</Description><StartTime><Timestamp dt:dt="int">0</Timestamp><DateUtc dt:dt="string">2018-08-28T05:21:29Z</DateUtc></StartTime><FrequencyChanges><FrequencyChange><Frequency dt:dt="r8">2742275</Frequency><Timestamp dt:dt="r8">10321096558</Timestamp><Current dt:dt="r8">0</Current><DateUtc dt:dt="string">2018-08-28T05:21:29Z</DateUtc></FrequencyChange></FrequencyChanges></Clock>\n,assim_main_vietnamese_500ms-418-1,60.014,1.0.0.84,1,1731572990,Professional,2.0.10.353,2.0.10.353,08-28-2018,28-Aug-18 5:21:29 AM,15:21:29,2.0.10.248,5,,,,Thai_F1_maa315-2,0,,0,-1,42530,0,h,101,42631,1,,0,167,41031,1499,,0,0,3,1,5,0,4,0,16,42647,0,7,1639,44286,pracproc,praclist,F1,maa,2,315,1,,0,26,44313,0,,0,0,,,,,,,,,,,,,,,,,,,,,,,,,,,,,,,,,,,,,,,,,,,,,,,,,,,,,,,,,,,,,,,,,,,,,,,
assim_main_vietnamese_500ms,418,1,<?xml version="1.0"?>\n<Clock xmlns:dt="urn:schemas-microsoft-com:datatypes"><Description dt:dt="string">E-Prime Primary Realtime Clock</Description><StartTime><Timestamp dt:dt="int">0</Timestamp><DateUtc dt:dt="string">2018-08-28T05:21:29Z</DateUtc></StartTime><FrequencyChanges><FrequencyChange><Frequency dt:dt="r8">2742275</Frequency><Timestamp dt:dt="r8">10321096558</Timestamp><Current dt:dt="r8">0</Current><DateUtc dt:dt="string">2018-08-28T05:21:29Z</DateUtc></FrequencyChange></FrequencyChanges></Clock>\n,assim_main_vietnamese_500ms-418-1,60.014,1.0.0.84,1,1731572990,Professional,2.0.10.353,2.0.10.353,08-28-2018,28-Aug-18 5:21:29 AM,15:21:29,2.0.10.248,6,,,,Thai_F1_maa45-3,0,,0,0,46963,0,j,508,47471,1,,0,150,45463,1500,,0,0,5,1,6,0,4,0,8,47479,0,7,1596,49075,pracproc,praclist,F1,maa,3,45,1,,0,16,49095,0,,0,0,,,,,,,,,,,,,,,,,,,,,,,,,,,,,,,,,,,,,,,,,,,,,,,,,,,,,,,,,,,,,,,,,,,,,,,
assim_main_vietnamese_500ms,418,1,<?xml version="1.0"?>\n<Clock xmlns:dt="urn:schemas-microsoft-com:datatypes"><Description dt:dt="string">E-Prime Primary Realtime Clock</Description><StartTime><Timestamp dt:dt="int">0</Timestamp><DateUtc dt:dt="string">2018-08-28T05:21:29Z</DateUtc></StartTime><FrequencyChanges><FrequencyChange><Frequency dt:dt="r8">2742275</Frequency><Timestamp dt:dt="r8">10321096558</Timestamp><Current dt:dt="r8">0</Current><DateUtc dt:dt="string">2018-08-28T05:21:29Z</DateUtc></FrequencyChange></FrequencyChanges></Clock>\n,assim_main_vietnamese_500ms-418-1,60.014,1.0.0.84,1,1731572990,Professional,2.0.10.353,2.0.10.353,08-28-2018,28-Aug-18 5:21:29 AM,15:21:29,2.0.10.248,7,,,,Thai_F1_mii45-1,0,,0,0,51728,0,j,948,52676,1,,1,133,50228,1500,,0,0,10,1,7,0,4,0,19,52695,0,7,1470,54165,pracproc,praclist,F1,mii,1,45,1,,0,25,54194,0,,0,0,,,,,,,,,,,,,,,,,,,,,,,,,,,,,,,,,,,,,,,,,,,,,,,,,,,,,,,,,,,,,,,,,,,,,,,
assim_main_vietnamese_500ms,418,1,<?xml version="1.0"?>\n<Clock xmlns:dt="urn:schemas-microsoft-com:datatypes"><Description dt:dt="string">E-Prime Primary Realtime Clock</Description><StartTime><Timestamp dt:dt="int">0</Timestamp><DateUtc dt:dt="string">2018-08-28T05:21:29Z</DateUtc></StartTime><FrequencyChanges><FrequencyChange><Frequency dt:dt="r8">2742275</Frequency><Timestamp dt:dt="r8">10321096558</Timestamp><Current dt:dt="r8">0</Current><DateUtc dt:dt="string">2018-08-28T05:21:29Z</DateUtc></FrequencyChange></FrequencyChanges></Clock>\n,assim_main_vietnamese_500ms-418-1,60.014,1.0.0.84,1,1731572990,Professional,2.0.10.353,2.0.10.353,08-28-2018,28-Aug-18 5:21:29 AM,15:21:29,2.0.10.248,8,,,,Thai_F1_maa21-1,0,,0,0,56827,0,g,2515,59342,0,,0,133,55327,1500,g,1441,56768,1,1,8,0,4,0,18,59360,0,7,2146,61506,pracproc,praclist,F1,maa,1,21,1,,0,17,61526,0,,0,0,,,,,,,,,,,,,,,,,,,,,,,,,,,,,,,,,,,,,,,,,,,,,,,,,,,,,,,,,,,,,,,,,,,,,,,
assim_main_vietnamese_500ms,418,1,<?xml version="1.0"?>\n<Clock xmlns:dt="urn:schemas-microsoft-com:datatypes"><Description dt:dt="string">E-Prime Primary Realtime Clock</Description><StartTime><Timestamp dt:dt="int">0</Timestamp><DateUtc dt:dt="string">2018-08-28T05:21:29Z</DateUtc></StartTime><FrequencyChanges><FrequencyChange><Frequency dt:dt="r8">2742275</Frequency><Timestamp dt:dt="r8">10321096558</Timestamp><Current dt:dt="r8">0</Current><DateUtc dt:dt="string">2018-08-28T05:21:29Z</DateUtc></FrequencyChange></FrequencyChanges></Clock>\n,assim_main_vietnamese_500ms-418-1,60.014,1.0.0.84,1,1731572990,Professional,2.0.10.353,2.0.10.353,08-28-2018,28-Aug-18 5:21:29 AM,15:21:29,2.0.10.248,9,,,,Thai_F1_mii33-2,0,,0,0,64142,0,g,707,64849,1,,0,116,62642,1500,,0,0,9,1,9,0,4,0,10,64859,0,7,1731,66590,pracproc,praclist,F1,mii,2,33,1,,0,16,66608,0,,0,0,,,,,,,,,,,,,,,,,,,,,,,,,,,,,,,,,,,,,,,,,,,,,,,,,,,,,,,,,,,,,,,,,,,,,,,
assim_main_vietnamese_500ms,418,1,<?xml version="1.0"?>\n<Clock xmlns:dt="urn:schemas-microsoft-com:datatypes"><Description dt:dt="string">E-Prime Primary Realtime Clock</Description><StartTime><Timestamp dt:dt="int">0</Timestamp><DateUtc dt:dt="string">2018-08-28T05:21:29Z</DateUtc></StartTime><FrequencyChanges><FrequencyChange><Frequency dt:dt="r8">2742275</Frequency><Timestamp dt:dt="r8">10321096558</Timestamp><Current dt:dt="r8">0</Current><DateUtc dt:dt="string">2018-08-28T05:21:29Z</DateUtc></FrequencyChange></FrequencyChanges></Clock>\n,assim_main_vietnamese_500ms-418-1,60.014,1.0.0.84,1,1731572990,Professional,2.0.10.353,2.0.10.353,08-28-2018,28-Aug-18 5:21:29 AM,15:21:29,2.0.10.248,10,,,,Thai_F1_maa241-1,0,,1,-1,69207,0,d,1481,70688,0,,0,100,67708,1499,d,1282,68990,2,1,10,0,4,0,19,70707,0,7,964,71671,pracproc,praclist,F1,maa,1,241,1,,0,18,71690,0,,0,0,,,,,,,,,,,,,,,,,,,,,,,,,,,,,,,,,,,,,,,,,,,,,,,,,,,,,,,,,,,,,,,,,,,,,,,
assim_main_vietnamese_500ms,418,1,<?xml version="1.0"?>\n<Clock xmlns:dt="urn:schemas-microsoft-com:datatypes"><Description dt:dt="string">E-Prime Primary Realtime Clock</Description><StartTime><Timestamp dt:dt="int">0</Timestamp><DateUtc dt:dt="string">2018-08-28T05:21:29Z</DateUtc></StartTime><FrequencyChanges><FrequencyChange><Frequency dt:dt="r8">2742275</Frequency><Timestamp dt:dt="r8">10321096558</Timestamp><Current dt:dt="r8">0</Current><DateUtc dt:dt="string">2018-08-28T05:21:29Z</DateUtc></FrequencyChange></FrequencyChanges></Clock>\n,assim_main_vietnamese_500ms-418-1,60.014,1.0.0.84,1,1731572990,Professional,2.0.10.353,2.0.10.353,08-28-2018,28-Aug-18 5:21:29 AM,15:21:29,2.0.10.248,11,3,1,1,,,,,,,,,,,,,,,,,,,,,,,,,,,,,,,,block3,explist,,,,,,,,,,,,,,1,,,,,,,,,,,,,2,1,1,,,,,,,,,,,,,0,,0,89,75856,1500,d,1246,77102,0,4,0,15,78339,0,7,1351,79690,1,,0,14,79705,0,,0,0,Thai_F2_maa241-3,0,,0,0,77356,0,d,968,78324,exproc,block3list,F2,maa,3,241
assim_main_vietnamese_500ms,418,1,<?xml version="1.0"?>\n<Clock xmlns:dt="urn:schemas-microsoft-com:datatypes"><Description dt:dt="string">E-Prime Primary Realtime Clock</Description><StartTime><Timestamp dt:dt="int">0</Timestamp><DateUtc dt:dt="string">2018-08-28T05:21:29Z</DateUtc></StartTime><FrequencyChanges><FrequencyChange><Frequency dt:dt="r8">2742275</Frequency><Timestamp dt:dt="r8">10321096558</Timestamp><Current dt:dt="r8">0</Current><DateUtc dt:dt="string">2018-08-28T05:21:29Z</DateUtc></FrequencyChange></FrequencyChanges></Clock>\n,assim_main_vietnamese_500ms-418-1,60.014,1.0.0.84,1,1731572990,Professional,2.0.10.353,2.0.10.353,08-28-2018,28-Aug-18 5:21:29 AM,15:21:29,2.0.10.248,11,3,1,1,,,,,,,,,,,,,,,,,,,,,,,,,,,,,,,,block3,explist,,,,,,,,,,,,,,2,,,,,,,,,,,,,13,1,2,,,,,,,,,,,,,1,,0,133,80838,1500,,0,0,0,4,0,14,83388,0,7,1691,85079,1,,0,23,85104,0,,0,0,Thai_F2_maa315-3,0,,0,0,82338,0,h,1036,83374,exproc,block3list,F2,maa,3,315
assim_main_vietnamese_500ms,418,1,<?xml version="1.0"?>\n<Clock xmlns:dt="urn:schemas-microsoft-com:datatypes"><Description dt:dt="string">E-Prime Primary Realtime Clock</Description><StartTime><Timestamp dt:dt="int">0</Timestamp><DateUtc dt:dt="string">2018-08-28T05:21:29Z</DateUtc></StartTime><FrequencyChanges><FrequencyChange><Frequency dt:dt="r8">2742275</Frequency><Timestamp dt:dt="r8">10321096558</Timestamp><Current dt:dt="r8">0</Current><DateUtc dt:dt="string">2018-08-28T05:21:29Z</DateUtc></FrequencyChange></FrequencyChanges></Clock>\n,assim_main_vietnamese_500ms-418-1,60.014,1.0.0.84,1,1731572990,Professional,2.0.10.353,2.0.10.353,08-28-2018,28-Aug-18 5:21:29 AM,15:21:29,2.0.10.248,11,3,1,1,,,,,,,,,,,,,,,,,,,,,,,,,,,,,,,,block3,explist,,,,,,,,,,,,,,3,,,,,,,,,,,,,17,1,3,,,,,,,,,,,,,0,,0,116,86220,1500,g,1485,87705,0,4,0,12,88903,0,7,1372,90275,1,,0,24,90303,0,,0,0,Thai_F2_mii241-3,0,,0,0,87720,0,g,1171,88891,exproc,block3list,F2,mii,3,241
assim_main_vietnamese_500ms,418,1,<?xml version="1.0"?>\n<Clock xmlns:dt="urn:schemas-microsoft-com:datatypes"><Description dt:dt="string">E-Prime Primary Realtime Clock</Description><StartTime><Timestamp dt:dt="int">0</Timestamp><DateUtc dt:dt="string">2018-08-28T05:21:29Z</DateUtc></StartTime><FrequencyChanges><FrequencyChange><Frequency dt:dt="r8">2742275</Frequency><Timestamp dt:dt="r8">10321096558</Timestamp><Current dt:dt="r8">0</Current><DateUtc dt:dt="string">2018-08-28T05:21:29Z</DateUtc></FrequencyChange></FrequencyChanges></Clock>\n,assim_main_vietnamese_500ms-418-1,60.014,1.0.0.84,1,1731572990,Professional,2.0.10.353,2.0.10.353,08-28-2018,28-Aug-18 5:21:29 AM,15:21:29,2.0.10.248,11,3,1,1,,,,,,,,,,,,,,,,,,,,,,,,,,,,,,,,block3,explist,,,,,,,,,,,,,,4,,,,,,,,,,,,,20,1,4,,,,,,,,,,,,,1,,1,149,91452,1500,,0,0,0,4,0,7,93569,0,7,1537,95106,1,,0,26,95135,0,,0,0,Thai_F2_mii45-3,0,,0,0,92952,0,j,610,93562,exproc,block3list,F2,mii,3,45
assim_main_vietnamese_500ms,418,1,<?xml version="1.0"?>\n<Clock xmlns:dt="urn:schemas-microsoft-com:datatypes"><Description dt:dt="string">E-Prime Primary Realtime Clock</Description><StartTime><Timestamp dt:dt="int">0</Timestamp><DateUtc dt:dt="string">2018-08-28T05:21:29Z</DateUtc></StartTime><FrequencyChanges><FrequencyChange><Frequency dt:dt="r8">2742275</Frequency><Timestamp dt:dt="r8">10321096558</Timestamp><Current dt:dt="r8">0</Current><DateUtc dt:dt="string">2018-08-28T05:21:29Z</DateUtc></FrequencyChange></FrequencyChanges></Clock>\n,assim_main_vietnamese_500ms-418-1,60.014,1.0.0.84,1,1731572990,Professional,2.0.10.353,2.0.10.353,08-28-2018,28-Aug-18 5:21:29 AM,15:21:29,2.0.10.248,11,3,1,1,,,,,,,,,,,,,,,,,,,,,,,,,,,,,,,,block3,explist,,,,,,,,,,,,,,5,,,,,,,,,,,,,11,1,5,,,,,,,,,,,,,1,,1,116,96251,1500,,0,0,0,4,0,19,97984,0,7,1269,99253,1,,0,12,99267,0,,0,0,Thai_F2_maa21-4,0,,0,0,97751,0,g,214,97965,exproc,block3list,F2,maa,4,21
assim_main_vietnamese_500ms,418,1,<?xml version="1.0"?>\n<Clock xmlns:dt="urn:schemas-microsoft-com:datatypes"><Description dt:dt="string">E-Prime Primary Realtime Clock</Description><StartTime><Timestamp dt:dt="int">0</Timestamp><DateUtc dt:dt="string">2018-08-28T05:21:29Z</DateUtc></StartTime><FrequencyChanges><FrequencyChange><Frequency dt:dt="r8">2742275</Frequency><Timestamp dt:dt="r8">10321096558</Timestamp><Current dt:dt="r8">0</Current><DateUtc dt:dt="string">2018-08-28T05:21:29Z</DateUtc></FrequencyChange></FrequencyChanges></Clock>\n,assim_main_vietnamese_500ms-418-1,60.014,1.0.0.84,1,1731572990,Professional,2.0.10.353,2.0.10.353,08-28-2018,28-Aug-18 5:21:29 AM,15:21:29,2.0.10.248,11,3,1,1,,,,,,,,,,,,,,,,,,,,,,,,,,,,,,,,block3,explist,,,,,,,,,,,,,,6,,,,,,,,,,,,,5,1,6,,,,,,,,,,,,,0,,0,117,100384,1499,j,1481,101865,0,4,0,22,103850,0,7,1436,105286,1,,0,12,105299,0,,0,0,Thai_F2_maa45-1,0,,1,-1,101883,0,j,1945,103828,exproc,block3list,F2,maa,1,45
assim_main_vietnamese_500ms,418,1,<?xml version="1.0"?>\n<Clock xmlns:dt="urn:schemas-microsoft-com:datatypes"><Description dt:dt="string">E-Prime Primary Realtime Clock</Description><StartTime><Timestamp dt:dt="int">0</Timestamp><DateUtc dt:dt="string">2018-08-28T05:21:29Z</DateUtc></StartTime><FrequencyChanges><FrequencyChange><Frequency dt:dt="r8">2742275</Frequency><Timestamp dt:dt="r8">10321096558</Timestamp><Current dt:dt="r8">0</Current><DateUtc dt:dt="string">2018-08-28T05:21:29Z</DateUtc></FrequencyChange></FrequencyChanges></Clock>\n,assim_main_vietnamese_500ms-418-1,60.014,1.0.0.84,1,1731572990,Professional,2.0.10.353,2.0.10.353,08-28-2018,28-Aug-18 5:21:29 AM,15:21:29,2.0.10.248,11,3,1,1,,,,,,,,,,,,,,,,,,,,,,,,,,,,,,,,block3,explist,,,,,,,,,,,,,,7,,,,,,,,,,,,,19,1,7,,,,,,,,,,,,,1,,1,133,106432,1500,,0,0,0,4,0,17,108182,0,7,1415,109597,1,,0,18,109615,0,,0,0,Thai_F2_mii33-5,0,,0,0,107932,0,g,233,108165,exproc,block3list,F2,mii,5,33
assim_main_vietnamese_500ms,418,1,<?xml version="1.0"?>\n<Clock xmlns:dt="urn:schemas-microsoft-com:datatypes"><Description dt:dt="string">E-Prime Primary Realtime Clock</Description><StartTime><Timestamp dt:dt="int">0</Timestamp><DateUtc dt:dt="string">2018-08-28T05:21:29Z</DateUtc></StartTime><FrequencyChanges><FrequencyChange><Frequency dt:dt="r8">2742275</Frequency><Timestamp dt:dt="r8">10321096558</Timestamp><Current dt:dt="r8">0</Current><DateUtc dt:dt="string">2018-08-28T05:21:29Z</DateUtc></FrequencyChange></FrequencyChanges></Clock>\n,assim_main_vietnamese_500ms-418-1,60.014,1.0.0.84,1,1731572990,Professional,2.0.10.353,2.0.10.353,08-28-2018,28-Aug-18 5:21:29 AM,15:21:29,2.0.10.248,11,3,1,1,,,,,,,,,,,,,,,,,,,,,,,,,,,,,,,,block3,explist,,,,,,,,,,,,,,8,,,,,,,,,,,,,14,1,8,,,,,,,,,,,,,1,,0,150,110765,1499,,0,0,0,4,0,5,112481,0,7,1852,114333,1,,0,14,114347,0,,0,0,Thai_F2_maa33-5,0,,1,-1,112264,0,g,212,112476,exproc,block3list,F2,maa,5,33
assim_main_vietnamese_500ms,418,1,<?xml version="1.0"?>\n<Clock xmlns:dt="urn:schemas-microsoft-com:datatypes"><Description dt:dt="string">E-Prime Primary Realtime Clock</Description><StartTime><Timestamp dt:dt="int">0</Timestamp><DateUtc dt:dt="string">2018-08-28T05:21:29Z</DateUtc></StartTime><FrequencyChanges><FrequencyChange><Frequency dt:dt="r8">2742275</Frequency><Timestamp dt:dt="r8">10321096558</Timestamp><Current dt:dt="r8">0</Current><DateUtc dt:dt="string">2018-08-28T05:21:29Z</DateUtc></FrequencyChange></FrequencyChanges></Clock>\n,assim_main_vietnamese_500ms-418-1,60.014,1.0.0.84,1,1731572990,Professional,2.0.10.353,2.0.10.353,08-28-2018,28-Aug-18 5:21:29 AM,15:21:29,2.0.10.248,11,3,1,1,,,,,,,,,,,,,,,,,,,,,,,,,,,,,,,,block3,explist,,,,,,,,,,,,,,9,,,,,,,,,,,,,8,1,9,,,,,,,,,,,,,0,,0,117,115464,1499,h,1326,116790,0,4,0,16,117813,0,7,833,118646,1,,0,16,118663,0,,0,0,Thai_F2_mii315-1,0,,0,-1,116963,0,h,834,117797,exproc,block3list,F2,mii,1,315
assim_main_vietnamese_500ms,418,1,<?xml version="1.0"?>\n<Clock xmlns:dt="urn:schemas-microsoft-com:datatypes"><Description dt:dt="string">E-Prime Primary Realtime Clock</Description><StartTime><Timestamp dt:dt="int">0</Timestamp><DateUtc dt:dt="string">2018-08-28T05:21:29Z</DateUtc></StartTime><FrequencyChanges><FrequencyChange><Frequency dt:dt="r8">2742275</Frequency><Timestamp dt:dt="r8">10321096558</Timestamp><Current dt:dt="r8">0</Current><DateUtc dt:dt="string">2018-08-28T05:21:29Z</DateUtc></FrequencyChange></FrequencyChanges></Clock>\n,assim_main_vietnamese_500ms-418-1,60.014,1.0.0.84,1,1731572990,Professional,2.0.10.353,2.0.10.353,08-28-2018,28-Aug-18 5:21:29 AM,15:21:29,2.0.10.248,11,3,1,1,,,,,,,,,,,,,,,,,,,,,,,,,,,,,,,,block3,explist,,,,,,,,,,,,,,10,,,,,,,,,,,,,3,1,10,,,,,,,,,,,,,1,,0,100,119763,1499,,0,0,0,4,0,17,121712,0,6,1408,123120,1,,0,24,123145,0,,0,0,Thai_F2_maa315-2,0,,1,-1,121262,0,h,433,121695,exproc,block3list,F2,maa,2,315
assim_main_vietnamese_500ms,418,1,<?xml version="1.0"?>\n<Clock xmlns:dt="urn:schemas-microsoft-com:datatypes"><Description dt:dt="string">E-Prime Primary Realtime Clock</Description><StartTime><Timestamp dt:dt="int">0</Timestamp><DateUtc dt:dt="string">2018-08-28T05:21:29Z</DateUtc></StartTime><FrequencyChanges><FrequencyChange><Frequency dt:dt="r8">2742275</Frequency><Timestamp dt:dt="r8">10321096558</Timestamp><Current dt:dt="r8">0</Current><DateUtc dt:dt="string">2018-08-28T05:21:29Z</DateUtc></FrequencyChange></FrequencyChanges></Clock>\n,assim_main_vietnamese_500ms-418-1,60.014,1.0.0.84,1,1731572990,Professional,2.0.10.353,2.0.10.353,08-28-2018,28-Aug-18 5:21:29 AM,15:21:29,2.0.10.248,11,3,1,1,,,,,,,,,,,,,,,,,,,,,,,,,,,,,,,,block3,explist,,,,,,,,,,,,,,11,,,,,,,,,,,,,9,1,11,,,,,,,,,,,,,1,,0,100,124245,1500,,0,0,0,4,0,16,125961,0,7,1304,127265,1,,0,11,127278,0,,0,0,Thai_F2_mii33-3,0,,0,0,125745,0,g,200,125945,exproc,block3list,F2,mii,3,33
assim_main_vietnamese_500ms,418,1,<?xml version="1.0"?>\n<Clock xmlns:dt="urn:schemas-microsoft-com:datatypes"><Description dt:dt="string">E-Prime Primary Realtime Clock</Description><StartTime><Timestamp dt:dt="int">0</Timestamp><DateUtc dt:dt="string">2018-08-28T05:21:29Z</DateUtc></StartTime><FrequencyChanges><FrequencyChange><Frequency dt:dt="r8">2742275</Frequency><Timestamp dt:dt="r8">10321096558</Timestamp><Current dt:dt="r8">0</Current><DateUtc dt:dt="string">2018-08-28T05:21:29Z</DateUtc></FrequencyChange></FrequencyChanges></Clock>\n,assim_main_vietnamese_500ms-418-1,60.014,1.0.0.84,1,1731572990,Professional,2.0.10.353,2.0.10.353,08-28-2018,28-Aug-18 5:21:29 AM,15:21:29,2.0.10.248,11,3,1,1,,,,,,,,,,,,,,,,,,,,,,,,,,,,,,,,block3,explist,,,,,,,,,,,,,,12,,,,,,,,,,,,,12,1,12,,,,,,,,,,,,,0,,0,100,128378,1499,g,1098,129476,0,4,0,8,130660,0,7,902,131562,1,,0,13,131577,0,,0,0,Thai_F2_maa241-5,0,,0,-1,129877,0,g,775,130652,exproc,block3list,F2,maa,5,241
assim_main_vietnamese_500ms,418,1,<?xml version="1.0"?>\n<Clock xmlns:dt="urn:schemas-microsoft-com:datatypes"><Description dt:dt="string">E-Prime Primary Realtime Clock</Description><StartTime><Timestamp dt:dt="int">0</Timestamp><DateUtc dt:dt="string">2018-08-28T05:21:29Z</DateUtc></StartTime><FrequencyChanges><FrequencyChange><Frequency dt:dt="r8">2742275</Frequency><Timestamp dt:dt="r8">10321096558</Timestamp><Current dt:dt="r8">0</Current><DateUtc dt:dt="string">2018-08-28T05:21:29Z</DateUtc></FrequencyChange></FrequencyChanges></Clock>\n,assim_main_vietnamese_500ms-418-1,60.014,1.0.0.84,1,1731572990,Professional,2.0.10.353,2.0.10.353,08-28-2018,28-Aug-18 5:21:29 AM,15:21:29,2.0.10.248,11,3,1,1,,,,,,,,,,,,,,,,,,,,,,,,,,,,,,,,block3,explist,,,,,,,,,,,,,,13,,,,,,,,,,,,,15,1,13,,,,,,,,,,,,,1,,0,150,132727,1499,,0,0,0,4,0,17,135043,0,5,2173,137216,1,,0,25,137242,0,,0,0,Thai_F2_maa45-2,0,,0,-1,134226,0,j,800,135026,exproc,block3list,F2,maa,2,45
assim_main_vietnamese_500ms,418,1,<?xml version="1.0"?>\n<Clock xmlns:dt="urn:schemas-microsoft-com:datatypes"><Description dt:dt="string">E-Prime Primary Realtime Clock</Description><StartTime><Timestamp dt:dt="int">0</Timestamp><DateUtc dt:dt="string">2018-08-28T05:21:29Z</DateUtc></StartTime><FrequencyChanges><FrequencyChange><Frequency dt:dt="r8">2742275</Frequency><Timestamp dt:dt="r8">10321096558</Timestamp><Current dt:dt="r8">0</Current><DateUtc dt:dt="string">2018-08-28T05:21:29Z</DateUtc></FrequencyChange></FrequencyChanges></Clock>\n,assim_main_vietnamese_500ms-418-1,60.014,1.0.0.84,1,1731572990,Professional,2.0.10.353,2.0.10.353,08-28-2018,28-Aug-18 5:21:29 AM,15:21:29,2.0.10.248,11,3,1,1,,,,,,,,,,,,,,,,,,,,,,,,,,,,,,,,block3,explist,,,,,,,,,,,,,,14,,,,,,,,,,,,,10,1,14,,,,,,,,,,,,,1,,0,100,138342,1500,,0,0,0,4,0,11,141391,0,7,1500,142891,1,,0,17,142908,0,,0,0,Thai_F2_mii45-2,0,,0,0,139842,0,j,1538,141380,exproc,block3list,F2,mii,2,45
assim_main_vietnamese_500ms,418,1,<?xml version="1.0"?>\n<Clock xmlns:dt="urn:schemas-microsoft-com:datatypes"><Description dt:dt="string">E-Prime Primary Realtime Clock</Description><StartTime><Timestamp dt:dt="int">0</Timestamp><DateUtc dt:dt="string">2018-08-28T05:21:29Z</DateUtc></StartTime><FrequencyChanges><FrequencyChange><Frequency dt:dt="r8">2742275</Frequency><Timestamp dt:dt="r8">10321096558</Timestamp><Current dt:dt="r8">0</Current><DateUtc dt:dt="string">2018-08-28T05:21:29Z</DateUtc></FrequencyChange></FrequencyChanges></Clock>\n,assim_main_vietnamese_500ms-418-1,60.014,1.0.0.84,1,1731572990,Professional,2.0.10.353,2.0.10.353,08-28-2018,28-Aug-18 5:21:29 AM,15:21:29,2.0.10.248,11,3,1,1,,,,,,,,,,,,,,,,,,,,,,,,,,,,,,,,block3,explist,,,,,,,,,,,,,,15,,,,,,,,,,,,,7,1,15,,,,,,,,,,,,,1,,0,116,144024,1500,,0,0,0,4,0,14,145807,0,7,2627,148434,1,,0,21,148456,0,,0,0,Thai_F2_mii241-2,0,,0,0,145524,0,g,269,145793,exproc,block3list,F2,mii,2,241
assim_main_vietnamese_500ms,418,1,<?xml version="1.0"?>\n<Clock xmlns:dt="urn:schemas-microsoft-com:datatypes"><Description dt:dt="string">E-Prime Primary Realtime Clock</Description><StartTime><Timestamp dt:dt="int">0</Timestamp><DateUtc dt:dt="string">2018-08-28T05:21:29Z</DateUtc></StartTime><FrequencyChanges><FrequencyChange><Frequency dt:dt="r8">2742275</Frequency><Timestamp dt:dt="r8">10321096558</Timestamp><Current dt:dt="r8">0</Current><DateUtc dt:dt="string">2018-08-28T05:21:29Z</DateUtc></FrequencyChange></FrequencyChanges></Clock>\n,assim_main_vietnamese_500ms-418-1,60.014,1.0.0.84,1,1731572990,Professional,2.0.10.353,2.0.10.353,08-28-2018,28-Aug-18 5:21:29 AM,15:21:29,2.0.10.248,11,3,1,1,,,,,,,,,,,,,,,,,,,,,,,,,,,,,,,,block3,explist,,,,,,,,,,,,,,16,,,,,,,,,,,,,1,1,16,,,,,,,,,,,,,1,,0,117,149573,1499,,0,0,0,4,0,19,151272,0,7,1202,152474,1,,0,14,152489,0,,0,0,Thai_F2_maa21-1,0,,0,-1,151072,0,g,181,151253,exproc,block3list,F2,maa,1,21
assim_main_vietnamese_500ms,418,1,<?xml version="1.0"?>\n<Clock xmlns:dt="urn:schemas-microsoft-com:datatypes"><Description dt:dt="string">E-Prime Primary Realtime Clock</Description><StartTime><Timestamp dt:dt="int">0</Timestamp><DateUtc dt:dt="string">2018-08-28T05:21:29Z</DateUtc></StartTime><FrequencyChanges><FrequencyChange><Frequency dt:dt="r8">2742275</Frequency><Timestamp dt:dt="r8">10321096558</Timestamp><Current dt:dt="r8">0</Current><DateUtc dt:dt="string">2018-08-28T05:21:29Z</DateUtc></FrequencyChange></FrequencyChanges></Clock>\n,assim_main_vietnamese_500ms-418-1,60.014,1.0.0.84,1,1731572990,Professional,2.0.10.353,2.0.10.353,08-28-2018,28-Aug-18 5:21:29 AM,15:21:29,2.0.10.248,11,3,1,1,,,,,,,,,,,,,,,,,,,,,,,,,,,,,,,,block3,explist,,,,,,,,,,,,,,17,,,,,,,,,,,,,18,1,17,,,,,,,,,,,,,1,,1,99,153588,1500,,0,0,0,4,1,11,155371,0,7,1481,156852,1,,0,19,156871,0,,0,0,Thai_F2_mii315-5,0,,0,0,155088,0,h,272,155360,exproc,block3list,F2,mii,5,315
assim_main_vietnamese_500ms,418,1,<?xml version="1.0"?>\n<Clock xmlns:dt="urn:schemas-microsoft-com:datatypes"><Description dt:dt="string">E-Prime Primary Realtime Clock</Description><StartTime><Timestamp dt:dt="int">0</Timestamp><DateUtc dt:dt="string">2018-08-28T05:21:29Z</DateUtc></StartTime><FrequencyChanges><FrequencyChange><Frequency dt:dt="r8">2742275</Frequency><Timestamp dt:dt="r8">10321096558</Timestamp><Current dt:dt="r8">0</Current><DateUtc dt:dt="string">2018-08-28T05:21:29Z</DateUtc></FrequencyChange></FrequencyChanges></Clock>\n,assim_main_vietnamese_500ms-418-1,60.014,1.0.0.84,1,1731572990,Professional,2.0.10.353,2.0.10.353,08-28-2018,28-Aug-18 5:21:29 AM,15:21:29,2.0.10.248,11,3,1,1,,,,,,,,,,,,,,,,,,,,,,,,,,,,,,,,block3,explist,,,,,,,,,,,,,,18,,,,,,,,,,,,,16,1,18,,,,,,,,,,,,,0,,0,100,157971,1500,g,1467,159438,0,4,0,12,160087,0,7,937,161024,1,,0,13,161037,0,,0,0,Thai_F2_mii21-5,0,,0,0,159471,0,g,604,160075,exproc,block3list,F2,mii,5,21
assim_main_vietnamese_500ms,418,1,<?xml version="1.0"?>\n<Clock xmlns:dt="urn:schemas-microsoft-com:datatypes"><Description dt:dt="string">E-Prime Primary Realtime Clock</Description><StartTime><Timestamp dt:dt="int">0</Timestamp><DateUtc dt:dt="string">2018-08-28T05:21:29Z</DateUtc></StartTime><FrequencyChanges><FrequencyChange><Frequency dt:dt="r8">2742275</Frequency><Timestamp dt:dt="r8">10321096558</Timestamp><Current dt:dt="r8">0</Current><DateUtc dt:dt="string">2018-08-28T05:21:29Z</DateUtc></FrequencyChange></FrequencyChanges></Clock>\n,assim_main_vietnamese_500ms-418-1,60.014,1.0.0.84,1,1731572990,Professional,2.0.10.353,2.0.10.353,08-28-2018,28-Aug-18 5:21:29 AM,15:21:29,2.0.10.248,11,3,1,1,,,,,,,,,,,,,,,,,,,,,,,,,,,,,,,,block3,explist,,,,,,,,,,,,,,19,,,,,,,,,,,,,6,1,19,,,,,,,,,,,,,1,,0,150,162187,1499,,0,0,0,4,0,12,164386,0,7,1314,165700,1,,0,17,165719,0,,0,0,Thai_F2_mii21-2,0,,0,-1,163686,0,g,688,164374,exproc,block3list,F2,mii,2,21
assim_main_vietnamese_500ms,418,1,<?xml version="1.0"?>\n<Clock xmlns:dt="urn:schemas-microsoft-com:datatypes"><Description dt:dt="string">E-Prime Primary Realtime Clock</Description><StartTime><Timestamp dt:dt="int">0</Timestamp><DateUtc dt:dt="string">2018-08-28T05:21:29Z</DateUtc></StartTime><FrequencyChanges><FrequencyChange><Frequency dt:dt="r8">2742275</Frequency><Timestamp dt:dt="r8">10321096558</Timestamp><Current dt:dt="r8">0</Current><DateUtc dt:dt="string">2018-08-28T05:21:29Z</DateUtc></FrequencyChange></FrequencyChanges></Clock>\n,assim_main_vietnamese_500ms-418-1,60.014,1.0.0.84,1,1731572990,Professional,2.0.10.353,2.0.10.353,08-28-2018,28-Aug-18 5:21:29 AM,15:21:29,2.0.10.248,11,3,1,1,,,,,,,,,,,,,,,,,,,,,,,,,,,,,,,,block3,explist,,,,,,,,,,,,,,20,,,,,,,,,,,,,4,1,20,,,,,,,,,,,,,1,,0,133,166852,1500,,0,0,0,4,0,21,168985,0,7,1652,170637,1,,0,13,170651,0,,0,0,Thai_F2_maa33-2,0,,0,0,168352,0,d,612,168964,exproc,block3list,F2,maa,2,33
assim_main_vietnamese_500ms,418,1,<?xml version="1.0"?>\n<Clock xmlns:dt="urn:schemas-microsoft-com:datatypes"><Description dt:dt="string">E-Prime Primary Realtime Clock</Description><StartTime><Timestamp dt:dt="int">0</Timestamp><DateUtc dt:dt="string">2018-08-28T05:21:29Z</DateUtc></StartTime><FrequencyChanges><FrequencyChange><Frequency dt:dt="r8">2742275</Frequency><Timestamp dt:dt="r8">10321096558</Timestamp><Current dt:dt="r8">0</Current><DateUtc dt:dt="string">2018-08-28T05:21:29Z</DateUtc></FrequencyChange></FrequencyChanges></Clock>\n,assim_main_vietnamese_500ms-418-1,60.014,1.0.0.84,1,1731572990,Professional,2.0.10.353,2.0.10.353,08-28-2018,28-Aug-18 5:21:29 AM,15:21:29,2.0.10.248,12,7,1,2,,,,,,,,,,,,,,,,,,,,,,,,,,,,,,,,block7,explist,,,,,,,,,,,,,,1,,,,,,,,,,,,,,,,,,,,,,,,,6,1,1,1,,0,134,174384,1499,,0,0,0,4,0,11,175900,0,7,1596,177496,1,,0,17,177516,0,,0,0,Thai_F2_mii21-2,0,,1,-1,175883,0,g,6,175889,exproc,block7list,F2,mii,2,21
assim_main_vietnamese_500ms,418,1,<?xml version="1.0"?>\n<Clock xmlns:dt="urn:schemas-microsoft-com:datatypes"><Description dt:dt="string">E-Prime Primary Realtime Clock</Description><StartTime><Timestamp dt:dt="int">0</Timestamp><DateUtc dt:dt="string">2018-08-28T05:21:29Z</DateUtc></StartTime><FrequencyChanges><FrequencyChange><Frequency dt:dt="r8">2742275</Frequency><Timestamp dt:dt="r8">10321096558</Timestamp><Current dt:dt="r8">0</Current><DateUtc dt:dt="string">2018-08-28T05:21:29Z</DateUtc></FrequencyChange></FrequencyChanges></Clock>\n,assim_main_vietnamese_500ms-418-1,60.014,1.0.0.84,1,1731572990,Professional,2.0.10.353,2.0.10.353,08-28-2018,28-Aug-18 5:21:29 AM,15:21:29,2.0.10.248,12,7,1,2,,,,,,,,,,,,,,,,,,,,,,,,,,,,,,,,block7,explist,,,,,,,,,,,,,,2,,,,,,,,,,,,,,,,,,,,,,,,,13,1,2,0,,0,134,178650,1499,h,1269,179919,0,4,0,12,181399,0,7,1052,182451,1,,0,13,182465,0,,0,0,Thai_F4_maa315-5,0,,0,-1,180149,0,h,1238,181387,exproc,block7list,F4,maa,5,315
assim_main_vietnamese_500ms,418,1,<?xml version="1.0"?>\n<Clock xmlns:dt="urn:schemas-microsoft-com:datatypes"><Description dt:dt="string">E-Prime Primary Realtime Clock</Description><StartTime><Timestamp dt:dt="int">0</Timestamp><DateUtc dt:dt="string">2018-08-28T05:21:29Z</DateUtc></StartTime><FrequencyChanges><FrequencyChange><Frequency dt:dt="r8">2742275</Frequency><Timestamp dt:dt="r8">10321096558</Timestamp><Current dt:dt="r8">0</Current><DateUtc dt:dt="string">2018-08-28T05:21:29Z</DateUtc></FrequencyChange></FrequencyChanges></Clock>\n,assim_main_vietnamese_500ms-418-1,60.014,1.0.0.84,1,1731572990,Professional,2.0.10.353,2.0.10.353,08-28-2018,28-Aug-18 5:21:29 AM,15:21:29,2.0.10.248,12,7,1,2,,,,,,,,,,,,,,,,,,,,,,,,,,,,,,,,block7,explist,,,,,,,,,,,,,,3,,,,,,,,,,,,,,,,,,,,,,,,,16,1,3,1,,0,100,183565,1500,,0,0,0,4,0,19,185415,0,7,1823,187238,1,,0,24,187264,0,,0,0,Thai_F4_mii21-2,0,,0,0,185065,0,g,331,185396,exproc,block7list,F4,mii,2,21
assim_main_vietnamese_500ms,418,1,<?xml version="1.0"?>\n<Clock xmlns:dt="urn:schemas-microsoft-com:datatypes"><Description dt:dt="string">E-Prime Primary Realtime Clock</Description><StartTime><Timestamp dt:dt="int">0</Timestamp><DateUtc dt:dt="string">2018-08-28T05:21:29Z</DateUtc></StartTime><FrequencyChanges><FrequencyChange><Frequency dt:dt="r8">2742275</Frequency><Timestamp dt:dt="r8">10321096558</Timestamp><Current dt:dt="r8">0</Current><DateUtc dt:dt="string">2018-08-28T05:21:29Z</DateUtc></FrequencyChange></FrequencyChanges></Clock>\n,assim_main_vietnamese_500ms-418-1,60.014,1.0.0.84,1,1731572990,Professional,2.0.10.353,2.0.10.353,08-28-2018,28-Aug-18 5:21:29 AM,15:21:29,2.0.10.248,12,7,1,2,,,,,,,,,,,,,,,,,,,,,,,,,,,,,,,,block7,explist,,,,,,,,,,,,,,4,,,,,,,,,,,,,,,,,,,,,,,,,5,1,4,1,,0,100,188364,1500,,0,0,0,4,1,14,190813,0,5,2084,192897,1,,0,14,192913,0,,0,0,Thai_F2_maa45-1,0,,0,0,189864,0,j,935,190799,exproc,block7list,F2,maa,1,45
assim_main_vietnamese_500ms,418,1,<?xml version="1.0"?>\n<Clock xmlns:dt="urn:schemas-microsoft-com:datatypes"><Description dt:dt="string">E-Prime Primary Realtime Clock</Description><StartTime><Timestamp dt:dt="int">0</Timestamp><DateUtc dt:dt="string">2018-08-28T05:21:29Z</DateUtc></StartTime><FrequencyChanges><FrequencyChange><Frequency dt:dt="r8">2742275</Frequency><Timestamp dt:dt="r8">10321096558</Timestamp><Current dt:dt="r8">0</Current><DateUtc dt:dt="string">2018-08-28T05:21:29Z</DateUtc></FrequencyChange></FrequencyChanges></Clock>\n,assim_main_vietnamese_500ms-418-1,60.014,1.0.0.84,1,1731572990,Professional,2.0.10.353,2.0.10.353,08-28-2018,28-Aug-18 5:21:29 AM,15:21:29,2.0.10.248,12,7,1,2,,,,,,,,,,,,,,,,,,,,,,,,,,,,,,,,block7,explist,,,,,,,,,,,,,,5,,,,,,,,,,,,,,,,,,,,,,,,,18,1,5,1,,0,133,194046,1500,,0,0,0,4,0,21,195646,0,7,1305,196951,1,,0,24,196979,0,,0,0,Thai_F4_mii315-4,0,,0,0,195546,0,h,79,195625,exproc,block7list,F4,mii,4,315
assim_main_vietnamese_500ms,418,1,<?xml version="1.0"?>\n<Clock xmlns:dt="urn:schemas-microsoft-com:datatypes"><Description dt:dt="string">E-Prime Primary Realtime Clock</Description><StartTime><Timestamp dt:dt="int">0</Timestamp><DateUtc dt:dt="string">2018-08-28T05:21:29Z</DateUtc></StartTime><FrequencyChanges><FrequencyChange><Frequency dt:dt="r8">2742275</Frequency><Timestamp dt:dt="r8">10321096558</Timestamp><Current dt:dt="r8">0</Current><DateUtc dt:dt="string">2018-08-28T05:21:29Z</DateUtc></FrequencyChange></FrequencyChanges></Clock>\n,assim_main_vietnamese_500ms-418-1,60.014,1.0.0.84,1,1731572990,Professional,2.0.10.353,2.0.10.353,08-28-2018,28-Aug-18 5:21:29 AM,15:21:29,2.0.10.248,12,7,1,2,,,,,,,,,,,,,,,,,,,,,,,,,,,,,,,,block7,explist,,,,,,,,,,,,,,6,,,,,,,,,,,,,,,,,,,,,,,,,4,1,6,0,,0,100,198079,1499,g,1334,199413,0,4,0,16,200561,0,7,1146,201707,1,,0,17,201728,0,,0,0,Thai_F2_maa33-2,0,,0,-1,199578,0,g,967,200545,exproc,block7list,F2,maa,2,33
assim_main_vietnamese_500ms,418,1,<?xml version="1.0"?>\n<Clock xmlns:dt="urn:schemas-microsoft-com:datatypes"><Description dt:dt="string">E-Prime Primary Realtime Clock</Description><StartTime><Timestamp dt:dt="int">0</Timestamp><DateUtc dt:dt="string">2018-08-28T05:21:29Z</DateUtc></StartTime><FrequencyChanges><FrequencyChange><Frequency dt:dt="r8">2742275</Frequency><Timestamp dt:dt="r8">10321096558</Timestamp><Current dt:dt="r8">0</Current><DateUtc dt:dt="string">2018-08-28T05:21:29Z</DateUtc></FrequencyChange></FrequencyChanges></Clock>\n,assim_main_vietnamese_500ms-418-1,60.014,1.0.0.84,1,1731572990,Professional,2.0.10.353,2.0.10.353,08-28-2018,28-Aug-18 5:21:29 AM,15:21:29,2.0.10.248,12,7,1,2,,,,,,,,,,,,,,,,,,,,,,,,,,,,,,,,block7,explist,,,,,,,,,,,,,,7,,,,,,,,,,,,,,,,,,,,,,,,,11,1,7,1,,1,99,202827,1500,,0,0,0,4,1,6,204660,0,7,1624,206284,1,,0,25,206310,0,,0,0,Thai_F4_maa21-1,0,,0,0,204327,0,g,327,204654,exproc,block7list,F4,maa,1,21
assim_main_vietnamese_500ms,418,1,<?xml version="1.0"?>\n<Clock xmlns:dt="urn:schemas-microsoft-com:datatypes"><Description dt:dt="string">E-Prime Primary Realtime Clock</Description><StartTime><Timestamp dt:dt="int">0</Timestamp><DateUtc dt:dt="string">2018-08-28T05:21:29Z</DateUtc></StartTime><FrequencyChanges><FrequencyChange><Frequency dt:dt="r8">2742275</Frequency><Timestamp dt:dt="r8">10321096558</Timestamp><Current dt:dt="r8">0</Current><DateUtc dt:dt="string">2018-08-28T05:21:29Z</DateUtc></FrequencyChange></FrequencyChanges></Clock>\n,assim_main_vietnamese_500ms-418-1,60.014,1.0.0.84,1,1731572990,Professional,2.0.10.353,2.0.10.353,08-28-2018,28-Aug-18 5:21:29 AM,15:21:29,2.0.10.248,12,7,1,2,,,,,,,,,,,,,,,,,,,,,,,,,,,,,,,,block7,explist,,,,,,,,,,,,,,8,,,,,,,,,,,,,,,,,,,,,,,,,1,1,8,1,,0,133,207443,1500,,0,0,0,4,0,17,209059,0,6,1655,210714,1,,0,25,210742,0,,0,0,Thai_F2_maa21-1,0,,0,0,208943,0,g,99,209042,exproc,block7list,F2,maa,1,21
assim_main_vietnamese_500ms,418,1,<?xml version="1.0"?>\n<Clock xmlns:dt="urn:schemas-microsoft-com:datatypes"><Description dt:dt="string">E-Prime Primary Realtime Clock</Description><StartTime><Timestamp dt:dt="int">0</Timestamp><DateUtc dt:dt="string">2018-08-28T05:21:29Z</DateUtc></StartTime><FrequencyChanges><FrequencyChange><Frequency dt:dt="r8">2742275</Frequency><Timestamp dt:dt="r8">10321096558</Timestamp><Current dt:dt="r8">0</Current><DateUtc dt:dt="string">2018-08-28T05:21:29Z</DateUtc></FrequencyChange></FrequencyChanges></Clock>\n,assim_main_vietnamese_500ms-418-1,60.014,1.0.0.84,1,1731572990,Professional,2.0.10.353,2.0.10.353,08-28-2018,28-Aug-18 5:21:29 AM,15:21:29,2.0.10.248,12,7,1,2,,,,,,,,,,,,,,,,,,,,,,,,,,,,,,,,block7,explist,,,,,,,,,,,,,,9,,,,,,,,,,,,,,,,,,,,,,,,,17,1,9,0,,0,133,211875,1500,d,1325,213200,0,4,0,9,214258,0,7,1033,215291,1,,0,15,215308,0,,0,0,Thai_F4_mii241-2,0,,0,0,213375,0,d,874,214249,exproc,block7list,F4,mii,2,241
assim_main_vietnamese_500ms,418,1,<?xml version="1.0"?>\n<Clock xmlns:dt="urn:schemas-microsoft-com:datatypes"><Description dt:dt="string">E-Prime Primary Realtime Clock</Description><StartTime><Timestamp dt:dt="int">0</Timestamp><DateUtc dt:dt="string">2018-08-28T05:21:29Z</DateUtc></StartTime><FrequencyChanges><FrequencyChange><Frequency dt:dt="r8">2742275</Frequency><Timestamp dt:dt="r8">10321096558</Timestamp><Current dt:dt="r8">0</Current><DateUtc dt:dt="string">2018-08-28T05:21:29Z</DateUtc></FrequencyChange></FrequencyChanges></Clock>\n,assim_main_vietnamese_500ms-418-1,60.014,1.0.0.84,1,1731572990,Professional,2.0.10.353,2.0.10.353,08-28-2018,28-Aug-18 5:21:29 AM,15:21:29,2.0.10.248,12,7,1,2,,,,,,,,,,,,,,,,,,,,,,,,,,,,,,,,block7,explist,,,,,,,,,,,,,,10,,,,,,,,,,,,,,,,,,,,,,,,,9,1,10,1,,0,100,216408,1499,,0,0,0,4,0,11,218041,0,7,1238,219279,1,,0,9,219290,0,,0,0,Thai_F2_mii33-3,0,,0,-1,217907,0,d,123,218030,exproc,block7list,F2,mii,3,33
assim_main_vietnamese_500ms,418,1,<?xml version="1.0"?>\n<Clock xmlns:dt="urn:schemas-microsoft-com:datatypes"><Description dt:dt="string">E-Prime Primary Realtime Clock</Description><StartTime><Timestamp dt:dt="int">0</Timestamp><DateUtc dt:dt="string">2018-08-28T05:21:29Z</DateUtc></StartTime><FrequencyChanges><FrequencyChange><Frequency dt:dt="r8">2742275</Frequency><Timestamp dt:dt="r8">10321096558</Timestamp><Current dt:dt="r8">0</Current><DateUtc dt:dt="string">2018-08-28T05:21:29Z</DateUtc></FrequencyChange></FrequencyChanges></Clock>\n,assim_main_vietnamese_500ms-418-1,60.014,1.0.0.84,1,1731572990,Professional,2.0.10.353,2.0.10.353,08-28-2018,28-Aug-18 5:21:29 AM,15:21:29,2.0.10.248,12,7,1,2,,,,,,,,,,,,,,,,,,,,,,,,,,,,,,,,block7,explist,,,,,,,,,,,,,,11,,,,,,,,,,,,,,,,,,,,,,,,,20,1,11,1,,0,117,220407,1499,,0,0,0,4,1,17,222356,0,7,1721,224077,1,,0,28,224106,0,,0,0,Thai_F4_mii45-2,0,,1,-1,221906,0,j,433,222339,exproc,block7list,F4,mii,2,45
assim_main_vietnamese_500ms,418,1,<?xml version="1.0"?>\n<Clock xmlns:dt="urn:schemas-microsoft-com:datatypes"><Description dt:dt="string">E-Prime Primary Realtime Clock</Description><StartTime><Timestamp dt:dt="int">0</Timestamp><DateUtc dt:dt="string">2018-08-28T05:21:29Z</DateUtc></StartTime><FrequencyChanges><FrequencyChange><Frequency dt:dt="r8">2742275</Frequency><Timestamp dt:dt="r8">10321096558</Timestamp><Current dt:dt="r8">0</Current><DateUtc dt:dt="string">2018-08-28T05:21:29Z</DateUtc></FrequencyChange></FrequencyChanges></Clock>\n,assim_main_vietnamese_500ms-418-1,60.014,1.0.0.84,1,1731572990,Professional,2.0.10.353,2.0.10.353,08-28-2018,28-Aug-18 5:21:29 AM,15:21:29,2.0.10.248,12,7,1,2,,,,,,,,,,,,,,,,,,,,,,,,,,,,,,,,block7,explist,,,,,,,,,,,,,,12,,,,,,,,,,,,,,,,,,,,,,,,,8,1,12,0,,0,133,225239,1500,h,1439,226678,0,4,0,18,227855,0,7,986,228841,1,,0,13,228855,0,,0,0,Thai_F2_mii315-1,0,,0,0,226739,0,h,1098,227837,exproc,block7list,F2,mii,1,315
assim_main_vietnamese_500ms,418,1,<?xml version="1.0"?>\n<Clock xmlns:dt="urn:schemas-microsoft-com:datatypes"><Description dt:dt="string">E-Prime Primary Realtime Clock</Description><StartTime><Timestamp dt:dt="int">0</Timestamp><DateUtc dt:dt="string">2018-08-28T05:21:29Z</DateUtc></StartTime><FrequencyChanges><FrequencyChange><Frequency dt:dt="r8">2742275</Frequency><Timestamp dt:dt="r8">10321096558</Timestamp><Current dt:dt="r8">0</Current><DateUtc dt:dt="string">2018-08-28T05:21:29Z</DateUtc></FrequencyChange></FrequencyChanges></Clock>\n,assim_main_vietnamese_500ms-418-1,60.014,1.0.0.84,1,1731572990,Professional,2.0.10.353,2.0.10.353,08-28-2018,28-Aug-18 5:21:29 AM,15:21:29,2.0.10.248,12,7,1,2,,,,,,,,,,,,,,,,,,,,,,,,,,,,,,,,block7,explist,,,,,,,,,,,,,,13,,,,,,,,,,,,,,,,,,,,,,,,,10,1,13,1,,0,116,229971,1500,,0,0,0,4,0,7,232021,0,7,1378,233399,1,,0,20,233421,0,,0,0,Thai_F2_mii45-2,0,,0,0,231471,0,j,542,232013,exproc,block7list,F2,mii,2,45
assim_main_vietnamese_500ms,418,1,<?xml version="1.0"?>\n<Clock xmlns:dt="urn:schemas-microsoft-com:datatypes"><Description dt:dt="string">E-Prime Primary Realtime Clock</Description><StartTime><Timestamp dt:dt="int">0</Timestamp><DateUtc dt:dt="string">2018-08-28T05:21:29Z</DateUtc></StartTime><FrequencyChanges><FrequencyChange><Frequency dt:dt="r8">2742275</Frequency><Timestamp dt:dt="r8">10321096558</Timestamp><Current dt:dt="r8">0</Current><DateUtc dt:dt="string">2018-08-28T05:21:29Z</DateUtc></FrequencyChange></FrequencyChanges></Clock>\n,assim_main_vietnamese_500ms-418-1,60.014,1.0.0.84,1,1731572990,Professional,2.0.10.353,2.0.10.353,08-28-2018,28-Aug-18 5:21:29 AM,15:21:29,2.0.10.248,12,7,1,2,,,,,,,,,,,,,,,,,,,,,,,,,,,,,,,,block7,explist,,,,,,,,,,,,,,14,,,,,,,,,,,,,,,,,,,,,,,,,14,1,14,1,,0,133,234554,1499,,0,0,0,4,0,11,236420,0,7,1316,237736,1,,0,16,237753,0,,0,0,Thai_F4_maa33-1,0,,0,-1,236053,0,g,356,236409,exproc,block7list,F4,maa,1,33
assim_main_vietnamese_500ms,418,1,<?xml version="1.0"?>\n<Clock xmlns:dt="urn:schemas-microsoft-com:datatypes"><Description dt:dt="string">E-Prime Primary Realtime Clock</Description><StartTime><Timestamp dt:dt="int">0</Timestamp><DateUtc dt:dt="string">2018-08-28T05:21:29Z</DateUtc></StartTime><FrequencyChanges><FrequencyChange><Frequency dt:dt="r8">2742275</Frequency><Timestamp dt:dt="r8">10321096558</Timestamp><Current dt:dt="r8">0</Current><DateUtc dt:dt="string">2018-08-28T05:21:29Z</DateUtc></FrequencyChange></FrequencyChanges></Clock>\n,assim_main_vietnamese_500ms-418-1,60.014,1.0.0.84,1,1731572990,Professional,2.0.10.353,2.0.10.353,08-28-2018,28-Aug-18 5:21:29 AM,15:21:29,2.0.10.248,12,7,1,2,,,,,,,,,,,,,,,,,,,,,,,,,,,,,,,,block7,explist,,,,,,,,,,,,,,15,,,,,,,,,,,,,,,,,,,,,,,,,3,1,15,1,,0,133,238886,1500,,0,0,0,4,0,14,240602,0,7,2035,242637,1,,0,12,242652,0,,0,0,Thai_F2_maa315-2,0,,0,0,240386,0,h,202,240588,exproc,block7list,F2,maa,2,315
assim_main_vietnamese_500ms,418,1,<?xml version="1.0"?>\n<Clock xmlns:dt="urn:schemas-microsoft-com:datatypes"><Description dt:dt="string">E-Prime Primary Realtime Clock</Description><StartTime><Timestamp dt:dt="int">0</Timestamp><DateUtc dt:dt="string">2018-08-28T05:21:29Z</DateUtc></StartTime><FrequencyChanges><FrequencyChange><Frequency dt:dt="r8">2742275</Frequency><Timestamp dt:dt="r8">10321096558</Timestamp><Current dt:dt="r8">0</Current><DateUtc dt:dt="string">2018-08-28T05:21:29Z</DateUtc></FrequencyChange></FrequencyChanges></Clock>\n,assim_main_vietnamese_500ms-418-1,60.014,1.0.0.84,1,1731572990,Professional,2.0.10.353,2.0.10.353,08-28-2018,28-Aug-18 5:21:29 AM,15:21:29,2.0.10.248,12,7,1,2,,,,,,,,,,,,,,,,,,,,,,,,,,,,,,,,block7,explist,,,,,,,,,,,,,,16,,,,,,,,,,,,,,,,,,,,,,,,,19,1,16,0,,0,100,243752,1499,g,1091,244843,0,4,0,6,245451,0,7,729,246180,1,,0,18,246201,0,,0,0,Thai_F4_mii33-5,0,,0,-1,245251,0,g,194,245445,exproc,block7list,F4,mii,5,33
assim_main_vietnamese_500ms,418,1,<?xml version="1.0"?>\n<Clock xmlns:dt="urn:schemas-microsoft-com:datatypes"><Description dt:dt="string">E-Prime Primary Realtime Clock</Description><StartTime><Timestamp dt:dt="int">0</Timestamp><DateUtc dt:dt="string">2018-08-28T05:21:29Z</DateUtc></StartTime><FrequencyChanges><FrequencyChange><Frequency dt:dt="r8">2742275</Frequency><Timestamp dt:dt="r8">10321096558</Timestamp><Current dt:dt="r8">0</Current><DateUtc dt:dt="string">2018-08-28T05:21:29Z</DateUtc></FrequencyChange></FrequencyChanges></Clock>\n,assim_main_vietnamese_500ms-418-1,60.014,1.0.0.84,1,1731572990,Professional,2.0.10.353,2.0.10.353,08-28-2018,28-Aug-18 5:21:29 AM,15:21:29,2.0.10.248,12,7,1,2,,,,,,,,,,,,,,,,,,,,,,,,,,,,,,,,block7,explist,,,,,,,,,,,,,,17,,,,,,,,,,,,,,,,,,,,,,,,,15,1,17,1,,1,116,247317,1500,,0,0,0,4,0,21,249317,0,7,558,249875,1,,0,22,249900,0,,0,0,Thai_F4_maa45-3,0,,0,0,248817,0,j,479,249296,exproc,block7list,F4,maa,3,45
assim_main_vietnamese_500ms,418,1,<?xml version="1.0"?>\n<Clock xmlns:dt="urn:schemas-microsoft-com:datatypes"><Description dt:dt="string">E-Prime Primary Realtime Clock</Description><StartTime><Timestamp dt:dt="int">0</Timestamp><DateUtc dt:dt="string">2018-08-28T05:21:29Z</DateUtc></StartTime><FrequencyChanges><FrequencyChange><Frequency dt:dt="r8">2742275</Frequency><Timestamp dt:dt="r8">10321096558</Timestamp><Current dt:dt="r8">0</Current><DateUtc dt:dt="string">2018-08-28T05:21:29Z</DateUtc></FrequencyChange></FrequencyChanges></Clock>\n,assim_main_vietnamese_500ms-418-1,60.014,1.0.0.84,1,1731572990,Professional,2.0.10.353,2.0.10.353,08-28-2018,28-Aug-18 5:21:29 AM,15:21:29,2.0.10.248,12,7,1,2,,,,,,,,,,,,,,,,,,,,,,,,,,,,,,,,block7,explist,,,,,,,,,,,,,,18,,,,,,,,,,,,,,,,,,,,,,,,,2,1,18,0,,0,117,251017,1499,d,1248,252265,0,4,0,15,253216,0,7,960,254176,1,,0,20,254199,0,,0,0,Thai_F2_maa241-3,0,,0,-1,252516,0,d,685,253201,exproc,block7list,F2,maa,3,241
assim_main_vietnamese_500ms,418,1,<?xml version="1.0"?>\n<Clock xmlns:dt="urn:schemas-microsoft-com:datatypes"><Description dt:dt="string">E-Prime Primary Realtime Clock</Description><StartTime><Timestamp dt:dt="int">0</Timestamp><DateUtc dt:dt="string">2018-08-28T05:21:29Z</DateUtc></StartTime><FrequencyChanges><FrequencyChange><Frequency dt:dt="r8">2742275</Frequency><Timestamp dt:dt="r8">10321096558</Timestamp><Current dt:dt="r8">0</Current><DateUtc dt:dt="string">2018-08-28T05:21:29Z</DateUtc></FrequencyChange></FrequencyChanges></Clock>\n,assim_main_vietnamese_500ms-418-1,60.014,1.0.0.84,1,1731572990,Professional,2.0.10.353,2.0.10.353,08-28-2018,28-Aug-18 5:21:29 AM,15:21:29,2.0.10.248,12,7,1,2,,,,,,,,,,,,,,,,,,,,,,,,,,,,,,,,block7,explist,,,,,,,,,,,,,,19,,,,,,,,,,,,,,,,,,,,,,,,,12,1,19,1,,0,100,255299,1500,,0,0,0,4,0,18,257282,0,7,1348,258630,1,,0,16,258648,0,,0,0,Thai_F4_maa241-5,0,,0,0,256799,0,d,465,257264,exproc,block7list,F4,maa,5,241
assim_main_vietnamese_500ms,418,1,<?xml version="1.0"?>\n<Clock xmlns:dt="urn:schemas-microsoft-com:datatypes"><Description dt:dt="string">E-Prime Primary Realtime Clock</Description><StartTime><Timestamp dt:dt="int">0</Timestamp><DateUtc dt:dt="string">2018-08-28T05:21:29Z</DateUtc></StartTime><FrequencyChanges><FrequencyChange><Frequency dt:dt="r8">2742275</Frequency><Timestamp dt:dt="r8">10321096558</Timestamp><Current dt:dt="r8">0</Current><DateUtc dt:dt="string">2018-08-28T05:21:29Z</DateUtc></FrequencyChange></FrequencyChanges></Clock>\n,assim_main_vietnamese_500ms-418-1,60.014,1.0.0.84,1,1731572990,Professional,2.0.10.353,2.0.10.353,08-28-2018,28-Aug-18 5:21:29 AM,15:21:29,2.0.10.248,12,7,1,2,,,,,,,,,,,,,,,,,,,,,,,,,,,,,,,,block7,explist,,,,,,,,,,,,,,20,,,,,,,,,,,,,,,,,,,,,,,,,7,1,20,1,,0,133,259781,1500,,0,0,0,4,0,21,261931,0,7,874,262805,1,,0,24,262831,0,,0,0,Thai_F2_mii241-2,0,,0,0,261281,0,d,629,261910,exproc,block7list,F2,mii,2,241
assim_main_vietnamese_500ms,418,1,<?xml version="1.0"?>\n<Clock xmlns:dt="urn:schemas-microsoft-com:datatypes"><Description dt:dt="string">E-Prime Primary Realtime Clock</Description><StartTime><Timestamp dt:dt="int">0</Timestamp><DateUtc dt:dt="string">2018-08-28T05:21:29Z</DateUtc></StartTime><FrequencyChanges><FrequencyChange><Frequency dt:dt="r8">2742275</Frequency><Timestamp dt:dt="r8">10321096558</Timestamp><Current dt:dt="r8">0</Current><DateUtc dt:dt="string">2018-08-28T05:21:29Z</DateUtc></FrequencyChange></FrequencyChanges></Clock>\n,assim_main_vietnamese_500ms-418-1,60.014,1.0.0.84,1,1731572990,Professional,2.0.10.353,2.0.10.353,08-28-2018,28-Aug-18 5:21:29 AM,15:21:29,2.0.10.248,13,5,1,3,,,,,,,,,,,,,,,,,,,,,,,,,,,,,,,,block5,explist,,,,,,,,,,,,,,1,,,,,,,,,,,,,,,,,,,20,1,1,,,,,,,1,,0,125,265730,1500,,0,0,0,4,0,19,267280,0,7,1015,268295,1,,0,17,268313,0,,0,0,Thai_F4_maa45-4,0,,0,0,267230,0,j,31,267261,exproc,block5list,F4,maa,4,45
assim_main_vietnamese_500ms,418,1,<?xml version="1.0"?>\n<Clock xmlns:dt="urn:schemas-microsoft-com:datatypes"><Description dt:dt="string">E-Prime Primary Realtime Clock</Description><StartTime><Timestamp dt:dt="int">0</Timestamp><DateUtc dt:dt="string">2018-08-28T05:21:29Z</DateUtc></StartTime><FrequencyChanges><FrequencyChange><Frequency dt:dt="r8">2742275</Frequency><Timestamp dt:dt="r8">10321096558</Timestamp><Current dt:dt="r8">0</Current><DateUtc dt:dt="string">2018-08-28T05:21:29Z</DateUtc></FrequencyChange></FrequencyChanges></Clock>\n,assim_main_vietnamese_500ms-418-1,60.014,1.0.0.84,1,1731572990,Professional,2.0.10.353,2.0.10.353,08-28-2018,28-Aug-18 5:21:29 AM,15:21:29,2.0.10.248,13,5,1,3,,,,,,,,,,,,,,,,,,,,,,,,,,,,,,,,block5,explist,,,,,,,,,,,,,,2,,,,,,,,,,,,,,,,,,,19,1,2,,,,,,,0,,1,99,269412,1500,g,1366,270778,0,4,0,12,272112,0,7,880,272992,1,,0,17,273012,0,,0,0,Thai_F4_maa33-5,0,,0,0,270912,0,g,1188,272100,exproc,block5list,F4,maa,5,33
assim_main_vietnamese_500ms,418,1,<?xml version="1.0"?>\n<Clock xmlns:dt="urn:schemas-microsoft-com:datatypes"><Description dt:dt="string">E-Prime Primary Realtime Clock</Description><StartTime><Timestamp dt:dt="int">0</Timestamp><DateUtc dt:dt="string">2018-08-28T05:21:29Z</DateUtc></StartTime><FrequencyChanges><FrequencyChange><Frequency dt:dt="r8">2742275</Frequency><Timestamp dt:dt="r8">10321096558</Timestamp><Current dt:dt="r8">0</Current><DateUtc dt:dt="string">2018-08-28T05:21:29Z</DateUtc></FrequencyChange></FrequencyChanges></Clock>\n,assim_main_vietnamese_500ms-418-1,60.014,1.0.0.84,1,1731572990,Professional,2.0.10.353,2.0.10.353,08-28-2018,28-Aug-18 5:21:29 AM,15:21:29,2.0.10.248,13,5,1,3,,,,,,,,,,,,,,,,,,,,,,,,,,,,,,,,block5,explist,,,,,,,,,,,,,,3,,,,,,,,,,,,,,,,,,,16,1,3,,,,,,,0,,0,133,274145,1499,g,1288,275433,0,4,0,12,276811,0,6,1019,277830,1,,0,14,277844,0,,0,0,Thai_F4_maa21-4,0,,0,-1,275644,0,g,1155,276799,exproc,block5list,F4,maa,4,21
assim_main_vietnamese_500ms,418,1,<?xml version="1.0"?>\n<Clock xmlns:dt="urn:schemas-microsoft-com:datatypes"><Description dt:dt="string">E-Prime Primary Realtime Clock</Description><StartTime><Timestamp dt:dt="int">0</Timestamp><DateUtc dt:dt="string">2018-08-28T05:21:29Z</DateUtc></StartTime><FrequencyChanges><FrequencyChange><Frequency dt:dt="r8">2742275</Frequency><Timestamp dt:dt="r8">10321096558</Timestamp><Current dt:dt="r8">0</Current><DateUtc dt:dt="string">2018-08-28T05:21:29Z</DateUtc></FrequencyChange></FrequencyChanges></Clock>\n,assim_main_vietnamese_500ms-418-1,60.014,1.0.0.84,1,1731572990,Professional,2.0.10.353,2.0.10.353,08-28-2018,28-Aug-18 5:21:29 AM,15:21:29,2.0.10.248,13,5,1,3,,,,,,,,,,,,,,,,,,,,,,,,,,,,,,,,block5,explist,,,,,,,,,,,,,,4,,,,,,,,,,,,,,,,,,,5,1,4,,,,,,,1,,0,100,278944,1499,,0,0,0,4,0,13,280627,0,7,1348,281975,1,,0,17,281993,0,,0,0,Thai_F2_maa45-1,0,,0,-1,280443,0,j,171,280614,exproc,block5list,F2,maa,1,45
assim_main_vietnamese_500ms,418,1,<?xml version="1.0"?>\n<Clock xmlns:dt="urn:schemas-microsoft-com:datatypes"><Description dt:dt="string">E-Prime Primary Realtime Clock</Description><StartTime><Timestamp dt:dt="int">0</Timestamp><DateUtc dt:dt="string">2018-08-28T05:21:29Z</DateUtc></StartTime><FrequencyChanges><FrequencyChange><Frequency dt:dt="r8">2742275</Frequency><Timestamp dt:dt="r8">10321096558</Timestamp><Current dt:dt="r8">0</Current><DateUtc dt:dt="string">2018-08-28T05:21:29Z</DateUtc></FrequencyChange></FrequencyChanges></Clock>\n,assim_main_vietnamese_500ms-418-1,60.014,1.0.0.84,1,1731572990,Professional,2.0.10.353,2.0.10.353,08-28-2018,28-Aug-18 5:21:29 AM,15:21:29,2.0.10.248,13,5,1,3,,,,,,,,,,,,,,,,,,,,,,,,,,,,,,,,block5,explist,,,,,,,,,,,,,,5,,,,,,,,,,,,,,,,,,,11,1,5,,,,,,,0,,0,100,283093,1499,g,1398,284491,0,4,0,0,287592,0,7,435,288027,1,,0,12,288042,0,,0,0,Thai_F2_maa21-4,1,,0,-1,284592,3000,,0,0,exproc,block5list,F2,maa,4,21
assim_main_vietnamese_500ms,418,1,<?xml version="1.0"?>\n<Clock xmlns:dt="urn:schemas-microsoft-com:datatypes"><Description dt:dt="string">E-Prime Primary Realtime Clock</Description><StartTime><Timestamp dt:dt="int">0</Timestamp><DateUtc dt:dt="string">2018-08-28T05:21:29Z</DateUtc></StartTime><FrequencyChanges><FrequencyChange><Frequency dt:dt="r8">2742275</Frequency><Timestamp dt:dt="r8">10321096558</Timestamp><Current dt:dt="r8">0</Current><DateUtc dt:dt="string">2018-08-28T05:21:29Z</DateUtc></FrequencyChange></FrequencyChanges></Clock>\n,assim_main_vietnamese_500ms-418-1,60.014,1.0.0.84,1,1731572990,Professional,2.0.10.353,2.0.10.353,08-28-2018,28-Aug-18 5:21:29 AM,15:21:29,2.0.10.248,13,5,1,3,,,,,,,,,,,,,,,,,,,,,,,,,,,,,,,,block5,explist,,,,,,,,,,,,,,6,,,,,,,,,,,,,,,,,,,8,1,6,,,,,,,1,,0,116,289158,1500,,0,0,0,4,1,11,292124,0,7,1144,293268,1,,0,18,293290,0,,0,0,Thai_F4_maa315-5,0,,0,0,290658,0,h,1455,292113,exproc,block5list,F4,maa,5,315
assim_main_vietnamese_500ms,418,1,<?xml version="1.0"?>\n<Clock xmlns:dt="urn:schemas-microsoft-com:datatypes"><Description dt:dt="string">E-Prime Primary Realtime Clock</Description><StartTime><Timestamp dt:dt="int">0</Timestamp><DateUtc dt:dt="string">2018-08-28T05:21:29Z</DateUtc></StartTime><FrequencyChanges><FrequencyChange><Frequency dt:dt="r8">2742275</Frequency><Timestamp dt:dt="r8">10321096558</Timestamp><Current dt:dt="r8">0</Current><DateUtc dt:dt="string">2018-08-28T05:21:29Z</DateUtc></FrequencyChange></FrequencyChanges></Clock>\n,assim_main_vietnamese_500ms-418-1,60.014,1.0.0.84,1,1731572990,Professional,2.0.10.353,2.0.10.353,08-28-2018,28-Aug-18 5:21:29 AM,15:21:29,2.0.10.248,13,5,1,3,,,,,,,,,,,,,,,,,,,,,,,,,,,,,,,,block5,explist,,,,,,,,,,,,,,7,,,,,,,,,,,,,,,,,,,2,1,7,,,,,,,1,,0,100,294390,1500,,0,0,0,4,1,11,296056,0,7,716,296772,1,,0,17,296790,0,,0,0,Thai_F2_maa241-3,0,,0,0,295890,0,d,155,296045,exproc,block5list,F2,maa,3,241
assim_main_vietnamese_500ms,418,1,<?xml version="1.0"?>\n<Clock xmlns:dt="urn:schemas-microsoft-com:datatypes"><Description dt:dt="string">E-Prime Primary Realtime Clock</Description><StartTime><Timestamp dt:dt="int">0</Timestamp><DateUtc dt:dt="string">2018-08-28T05:21:29Z</DateUtc></StartTime><FrequencyChanges><FrequencyChange><Frequency dt:dt="r8">2742275</Frequency><Timestamp dt:dt="r8">10321096558</Timestamp><Current dt:dt="r8">0</Current><DateUtc dt:dt="string">2018-08-28T05:21:29Z</DateUtc></FrequencyChange></FrequencyChanges></Clock>\n,assim_main_vietnamese_500ms-418-1,60.014,1.0.0.84,1,1731572990,Professional,2.0.10.353,2.0.10.353,08-28-2018,28-Aug-18 5:21:29 AM,15:21:29,2.0.10.248,13,5,1,3,,,,,,,,,,,,,,,,,,,,,,,,,,,,,,,,block5,explist,,,,,,,,,,,,,,8,,,,,,,,,,,,,,,,,,,6,1,8,,,,,,,0,,0,116,297906,1500,g,1423,299329,0,4,0,16,299972,0,7,948,300920,1,,0,17,300939,0,,0,0,Thai_F4_maa21-1,0,,0,0,299406,0,g,550,299956,exproc,block5list,F4,maa,1,21
assim_main_vietnamese_500ms,418,1,<?xml version="1.0"?>\n<Clock xmlns:dt="urn:schemas-microsoft-com:datatypes"><Description dt:dt="string">E-Prime Primary Realtime Clock</Description><StartTime><Timestamp dt:dt="int">0</Timestamp><DateUtc dt:dt="string">2018-08-28T05:21:29Z</DateUtc></StartTime><FrequencyChanges><FrequencyChange><Frequency dt:dt="r8">2742275</Frequency><Timestamp dt:dt="r8">10321096558</Timestamp><Current dt:dt="r8">0</Current><DateUtc dt:dt="string">2018-08-28T05:21:29Z</DateUtc></FrequencyChange></FrequencyChanges></Clock>\n,assim_main_vietnamese_500ms-418-1,60.014,1.0.0.84,1,1731572990,Professional,2.0.10.353,2.0.10.353,08-28-2018,28-Aug-18 5:21:29 AM,15:21:29,2.0.10.248,13,5,1,3,,,,,,,,,,,,,,,,,,,,,,,,,,,,,,,,block5,explist,,,,,,,,,,,,,,9,,,,,,,,,,,,,,,,,,,17,1,9,,,,,,,1,,0,133,302072,1499,,0,0,0,4,0,11,303805,0,7,909,304714,1,,0,21,304738,0,,0,0,Thai_F4_maa241-6,0,,0,-1,303571,0,d,223,303794,exproc,block5list,F4,maa,6,241
assim_main_vietnamese_500ms,418,1,<?xml version="1.0"?>\n<Clock xmlns:dt="urn:schemas-microsoft-com:datatypes"><Description dt:dt="string">E-Prime Primary Realtime Clock</Description><StartTime><Timestamp dt:dt="int">0</Timestamp><DateUtc dt:dt="string">2018-08-28T05:21:29Z</DateUtc></StartTime><FrequencyChanges><FrequencyChange><Frequency dt:dt="r8">2742275</Frequency><Timestamp dt:dt="r8">10321096558</Timestamp><Current dt:dt="r8">0</Current><DateUtc dt:dt="string">2018-08-28T05:21:29Z</DateUtc></FrequencyChange></FrequencyChanges></Clock>\n,assim_main_vietnamese_500ms-418-1,60.014,1.0.0.84,1,1731572990,Professional,2.0.10.353,2.0.10.353,08-28-2018,28-Aug-18 5:21:29 AM,15:21:29,2.0.10.248,13,5,1,3,,,,,,,,,,,,,,,,,,,,,,,,,,,,,,,,block5,explist,,,,,,,,,,,,,,10,,,,,,,,,,,,,,,,,,,10,1,10,,,,,,,1,,0,116,305854,1500,,0,0,0,4,1,10,307670,0,7,780,308450,1,,0,19,308470,0,,0,0,Thai_F4_maa45-3,0,,0,0,307354,0,j,306,307660,exproc,block5list,F4,maa,3,45
assim_main_vietnamese_500ms,418,1,<?xml version="1.0"?>\n<Clock xmlns:dt="urn:schemas-microsoft-com:datatypes"><Description dt:dt="string">E-Prime Primary Realtime Clock</Description><StartTime><Timestamp dt:dt="int">0</Timestamp><DateUtc dt:dt="string">2018-08-28T05:21:29Z</DateUtc></StartTime><FrequencyChanges><FrequencyChange><Frequency dt:dt="r8">2742275</Frequency><Timestamp dt:dt="r8">10321096558</Timestamp><Current dt:dt="r8">0</Current><DateUtc dt:dt="string">2018-08-28T05:21:29Z</DateUtc></FrequencyChange></FrequencyChanges></Clock>\n,assim_main_vietnamese_500ms-418-1,60.014,1.0.0.84,1,1731572990,Professional,2.0.10.353,2.0.10.353,08-28-2018,28-Aug-18 5:21:29 AM,15:21:29,2.0.10.248,13,5,1,3,,,,,,,,,,,,,,,,,,,,,,,,,,,,,,,,block5,explist,,,,,,,,,,,,,,11,,,,,,,,,,,,,,,,,,,1,1,11,,,,,,,0,,0,117,309587,1499,g,1236,310823,0,4,0,19,311853,0,6,689,312542,1,,0,11,312553,0,,0,0,Thai_F2_maa21-1,0,,0,-1,311086,0,g,748,311834,exproc,block5list,F2,maa,1,21
assim_main_vietnamese_500ms,418,1,<?xml version="1.0"?>\n<Clock xmlns:dt="urn:schemas-microsoft-com:datatypes"><Description dt:dt="string">E-Prime Primary Realtime Clock</Description><StartTime><Timestamp dt:dt="int">0</Timestamp><DateUtc dt:dt="string">2018-08-28T05:21:29Z</DateUtc></StartTime><FrequencyChanges><FrequencyChange><Frequency dt:dt="r8">2742275</Frequency><Timestamp dt:dt="r8">10321096558</Timestamp><Current dt:dt="r8">0</Current><DateUtc dt:dt="string">2018-08-28T05:21:29Z</DateUtc></FrequencyChange></FrequencyChanges></Clock>\n,assim_main_vietnamese_500ms-418-1,60.014,1.0.0.84,1,1731572990,Professional,2.0.10.353,2.0.10.353,08-28-2018,28-Aug-18 5:21:29 AM,15:21:29,2.0.10.248,13,5,1,3,,,,,,,,,,,,,,,,,,,,,,,,,,,,,,,,block5,explist,,,,,,,,,,,,,,12,,,,,,,,,,,,,,,,,,,12,1,12,,,,,,,0,,0,133,313686,1499,d,1153,314839,0,4,0,19,315835,0,7,649,316484,1,,0,16,316502,0,,0,0,Thai_F2_maa241-5,0,,1,-1,315185,0,d,631,315816,exproc,block5list,F2,maa,5,241
assim_main_vietnamese_500ms,418,1,<?xml version="1.0"?>\n<Clock xmlns:dt="urn:schemas-microsoft-com:datatypes"><Description dt:dt="string">E-Prime Primary Realtime Clock</Description><StartTime><Timestamp dt:dt="int">0</Timestamp><DateUtc dt:dt="string">2018-08-28T05:21:29Z</DateUtc></StartTime><FrequencyChanges><FrequencyChange><Frequency dt:dt="r8">2742275</Frequency><Timestamp dt:dt="r8">10321096558</Timestamp><Current dt:dt="r8">0</Current><DateUtc dt:dt="string">2018-08-28T05:21:29Z</DateUtc></FrequencyChange></FrequencyChanges></Clock>\n,assim_main_vietnamese_500ms-418-1,60.014,1.0.0.84,1,1731572990,Professional,2.0.10.353,2.0.10.353,08-28-2018,28-Aug-18 5:21:29 AM,15:21:29,2.0.10.248,13,5,1,3,,,,,,,,,,,,,,,,,,,,,,,,,,,,,,,,block5,explist,,,,,,,,,,,,,,13,,,,,,,,,,,,,,,,,,,15,1,13,,,,,,,1,,0,150,317652,1499,,0,0,0,4,0,13,319301,0,5,1262,320563,1,,0,19,320584,0,,0,0,Thai_F2_maa45-2,0,,0,-1,319151,0,j,137,319288,exproc,block5list,F2,maa,2,45
assim_main_vietnamese_500ms,418,1,<?xml version="1.0"?>\n<Clock xmlns:dt="urn:schemas-microsoft-com:datatypes"><Description dt:dt="string">E-Prime Primary Realtime Clock</Description><StartTime><Timestamp dt:dt="int">0</Timestamp><DateUtc dt:dt="string">2018-08-28T05:21:29Z</DateUtc></StartTime><FrequencyChanges><FrequencyChange><Frequency dt:dt="r8">2742275</Frequency><Timestamp dt:dt="r8">10321096558</Timestamp><Current dt:dt="r8">0</Current><DateUtc dt:dt="string">2018-08-28T05:21:29Z</DateUtc></FrequencyChange></FrequencyChanges></Clock>\n,assim_main_vietnamese_500ms-418-1,60.014,1.0.0.84,1,1731572990,Professional,2.0.10.353,2.0.10.353,08-28-2018,28-Aug-18 5:21:29 AM,15:21:29,2.0.10.248,13,5,1,3,,,,,,,,,,,,,,,,,,,,,,,,,,,,,,,,block5,explist,,,,,,,,,,,,,,14,,,,,,,,,,,,,,,,,,,13,1,14,,,,,,,0,,0,117,321701,1499,j,1244,322945,0,4,0,21,324417,0,6,819,325236,1,,0,14,325250,0,,0,0,Thai_F2_maa315-3,0,,0,-1,323200,0,j,1196,324396,exproc,block5list,F2,maa,3,315
assim_main_vietnamese_500ms,418,1,<?xml version="1.0"?>\n<Clock xmlns:dt="urn:schemas-microsoft-com:datatypes"><Description dt:dt="string">E-Prime Primary Realtime Clock</Description><StartTime><Timestamp dt:dt="int">0</Timestamp><DateUtc dt:dt="string">2018-08-28T05:21:29Z</DateUtc></StartTime><FrequencyChanges><FrequencyChange><Frequency dt:dt="r8">2742275</Frequency><Timestamp dt:dt="r8">10321096558</Timestamp><Current dt:dt="r8">0</Current><DateUtc dt:dt="string">2018-08-28T05:21:29Z</DateUtc></FrequencyChange></FrequencyChanges></Clock>\n,assim_main_vietnamese_500ms-418-1,60.014,1.0.0.84,1,1731572990,Professional,2.0.10.353,2.0.10.353,08-28-2018,28-Aug-18 5:21:29 AM,15:21:29,2.0.10.248,13,5,1,3,,,,,,,,,,,,,,,,,,,,,,,,,,,,,,,,block5,explist,,,,,,,,,,,,,,15,,,,,,,,,,,,,,,,,,,7,1,15,,,,,,,0,,0,100,326350,1499,d,865,327215,0,4,0,11,327883,0,7,516,328399,0,,0,14,328416,0,7,60,328476,Thai_F4_maa241-5,0,,0,-1,327849,0,d,23,327872,exproc,block5list,F4,maa,5,241
assim_main_vietnamese_500ms,418,1,<?xml version="1.0"?>\n<Clock xmlns:dt="urn:schemas-microsoft-com:datatypes"><Description dt:dt="string">E-Prime Primary Realtime Clock</Description><StartTime><Timestamp dt:dt="int">0</Timestamp><DateUtc dt:dt="string">2018-08-28T05:21:29Z</DateUtc></StartTime><FrequencyChanges><FrequencyChange><Frequency dt:dt="r8">2742275</Frequency><Timestamp dt:dt="r8">10321096558</Timestamp><Current dt:dt="r8">0</Current><DateUtc dt:dt="string">2018-08-28T05:21:29Z</DateUtc></FrequencyChange></FrequencyChanges></Clock>\n,assim_main_vietnamese_500ms-418-1,60.014,1.0.0.84,1,1731572990,Professional,2.0.10.353,2.0.10.353,08-28-2018,28-Aug-18 5:21:29 AM,15:21:29,2.0.10.248,13,5,1,3,,,,,,,,,,,,,,,,,,,,,,,,,,,,,,,,block5,explist,,,,,,,,,,,,,,16,,,,,,,,,,,,,,,,,,,9,1,16,,,,,,,1,,0,116,329532,1500,,0,0,0,4,0,17,331232,0,7,654,331886,1,,0,25,331915,0,,0,0,Thai_F4_maa33-1,0,,0,0,331032,0,g,183,331215,exproc,block5list,F4,maa,1,33
assim_main_vietnamese_500ms,418,1,<?xml version="1.0"?>\n<Clock xmlns:dt="urn:schemas-microsoft-com:datatypes"><Description dt:dt="string">E-Prime Primary Realtime Clock</Description><StartTime><Timestamp dt:dt="int">0</Timestamp><DateUtc dt:dt="string">2018-08-28T05:21:29Z</DateUtc></StartTime><FrequencyChanges><FrequencyChange><Frequency dt:dt="r8">2742275</Frequency><Timestamp dt:dt="r8">10321096558</Timestamp><Current dt:dt="r8">0</Current><DateUtc dt:dt="string">2018-08-28T05:21:29Z</DateUtc></FrequencyChange></FrequencyChanges></Clock>\n,assim_main_vietnamese_500ms-418-1,60.014,1.0.0.84,1,1731572990,Professional,2.0.10.353,2.0.10.353,08-28-2018,28-Aug-18 5:21:29 AM,15:21:29,2.0.10.248,13,5,1,3,,,,,,,,,,,,,,,,,,,,,,,,,,,,,,,,block5,explist,,,,,,,,,,,,,,17,,,,,,,,,,,,,,,,,,,14,1,17,,,,,,,0,,0,133,333048,1500,g,1283,334331,0,4,0,7,334931,0,7,835,335766,1,,0,11,335781,0,,0,0,Thai_F2_maa33-5,0,,0,0,334548,0,g,376,334924,exproc,block5list,F2,maa,5,33
assim_main_vietnamese_500ms,418,1,<?xml version="1.0"?>\n<Clock xmlns:dt="urn:schemas-microsoft-com:datatypes"><Description dt:dt="string">E-Prime Primary Realtime Clock</Description><StartTime><Timestamp dt:dt="int">0</Timestamp><DateUtc dt:dt="string">2018-08-28T05:21:29Z</DateUtc></StartTime><FrequencyChanges><FrequencyChange><Frequency dt:dt="r8">2742275</Frequency><Timestamp dt:dt="r8">10321096558</Timestamp><Current dt:dt="r8">0</Current><DateUtc dt:dt="string">2018-08-28T05:21:29Z</DateUtc></FrequencyChange></FrequencyChanges></Clock>\n,assim_main_vietnamese_500ms-418-1,60.014,1.0.0.84,1,1731572990,Professional,2.0.10.353,2.0.10.353,08-28-2018,28-Aug-18 5:21:29 AM,15:21:29,2.0.10.248,13,5,1,3,,,,,,,,,,,,,,,,,,,,,,,,,,,,,,,,block5,explist,,,,,,,,,,,,,,18,,,,,,,,,,,,,,,,,,,3,1,18,,,,,,,0,,0,100,336881,1499,h,1358,338239,0,4,0,14,338580,0,7,1048,339628,1,,0,19,339647,0,,0,0,Thai_F2_maa315-2,0,,0,-1,338380,0,h,186,338566,exproc,block5list,F2,maa,2,315
assim_main_vietnamese_500ms,418,1,<?xml version="1.0"?>\n<Clock xmlns:dt="urn:schemas-microsoft-com:datatypes"><Description dt:dt="string">E-Prime Primary Realtime Clock</Description><StartTime><Timestamp dt:dt="int">0</Timestamp><DateUtc dt:dt="string">2018-08-28T05:21:29Z</DateUtc></StartTime><FrequencyChanges><FrequencyChange><Frequency dt:dt="r8">2742275</Frequency><Timestamp dt:dt="r8">10321096558</Timestamp><Current dt:dt="r8">0</Current><DateUtc dt:dt="string">2018-08-28T05:21:29Z</DateUtc></FrequencyChange></FrequencyChanges></Clock>\n,assim_main_vietnamese_500ms-418-1,60.014,1.0.0.84,1,1731572990,Professional,2.0.10.353,2.0.10.353,08-28-2018,28-Aug-18 5:21:29 AM,15:21:29,2.0.10.248,13,5,1,3,,,,,,,,,,,,,,,,,,,,,,,,,,,,,,,,block5,explist,,,,,,,,,,,,,,19,,,,,,,,,,,,,,,,,,,18,1,19,,,,,,,1,,0,149,340796,1500,,0,0,0,4,0,11,343029,0,7,1096,344125,1,,0,19,344146,0,,0,0,Thai_F4_maa315-6,0,,0,0,342296,0,h,722,343018,exproc,block5list,F4,maa,6,315
assim_main_vietnamese_500ms,418,1,<?xml version="1.0"?>\n<Clock xmlns:dt="urn:schemas-microsoft-com:datatypes"><Description dt:dt="string">E-Prime Primary Realtime Clock</Description><StartTime><Timestamp dt:dt="int">0</Timestamp><DateUtc dt:dt="string">2018-08-28T05:21:29Z</DateUtc></StartTime><FrequencyChanges><FrequencyChange><Frequency dt:dt="r8">2742275</Frequency><Timestamp dt:dt="r8">10321096558</Timestamp><Current dt:dt="r8">0</Current><DateUtc dt:dt="string">2018-08-28T05:21:29Z</DateUtc></FrequencyChange></FrequencyChanges></Clock>\n,assim_main_vietnamese_500ms-418-1,60.014,1.0.0.84,1,1731572990,Professional,2.0.10.353,2.0.10.353,08-28-2018,28-Aug-18 5:21:29 AM,15:21:29,2.0.10.248,13,5,1,3,,,,,,,,,,,,,,,,,,,,,,,,,,,,,,,,block5,explist,,,,,,,,,,,,,,20,,,,,,,,,,,,,,,,,,,4,1,20,,,,,,,1,,0,116,345262,1500,,0,0,0,4,0,9,346878,0,7,977,347855,1,,0,19,347878,0,,0,0,Thai_F2_maa33-2,0,,0,0,346762,0,g,107,346869,exproc,block5list,F2,maa,2,33
assim_main_vietnamese_500ms,418,1,<?xml version="1.0"?>\n<Clock xmlns:dt="urn:schemas-microsoft-com:datatypes"><Description dt:dt="string">E-Prime Primary Realtime Clock</Description><StartTime><Timestamp dt:dt="int">0</Timestamp><DateUtc dt:dt="string">2018-08-28T05:21:29Z</DateUtc></StartTime><FrequencyChanges><FrequencyChange><Frequency dt:dt="r8">2742275</Frequency><Timestamp dt:dt="r8">10321096558</Timestamp><Current dt:dt="r8">0</Current><DateUtc dt:dt="string">2018-08-28T05:21:29Z</DateUtc></FrequencyChange></FrequencyChanges></Clock>\n,assim_main_vietnamese_500ms-418-1,60.014,1.0.0.84,1,1731572990,Professional,2.0.10.353,2.0.10.353,08-28-2018,28-Aug-18 5:21:29 AM,15:21:29,2.0.10.248,14,1,1,4,,,,,,,,,,,,,,,,,,,,,,,,,,,,,,,,block1,explist,,,,,,,,,,,,,,1,10,1,1,,,,,,,,,,,,,,,,,,,,,,,,,1,,0,90,364641,1500,,0,0,0,4,0,7,366741,0,7,1492,368233,1,,0,21,368257,0,,0,0,Thai_F1_maa45-5,0,,0,0,366141,0,j,593,366734,exproc,block1alist,F2,maa,5,45
assim_main_vietnamese_500ms,418,1,<?xml version="1.0"?>\n<Clock xmlns:dt="urn:schemas-microsoft-com:datatypes"><Description dt:dt="string">E-Prime Primary Realtime Clock</Description><StartTime><Timestamp dt:dt="int">0</Timestamp><DateUtc dt:dt="string">2018-08-28T05:21:29Z</DateUtc></StartTime><FrequencyChanges><FrequencyChange><Frequency dt:dt="r8">2742275</Frequency><Timestamp dt:dt="r8">10321096558</Timestamp><Current dt:dt="r8">0</Current><DateUtc dt:dt="string">2018-08-28T05:21:29Z</DateUtc></FrequencyChange></FrequencyChanges></Clock>\n,assim_main_vietnamese_500ms-418-1,60.014,1.0.0.84,1,1731572990,Professional,2.0.10.353,2.0.10.353,08-28-2018,28-Aug-18 5:21:29 AM,15:21:29,2.0.10.248,14,1,1,4,,,,,,,,,,,,,,,,,,,,,,,,,,,,,,,,block1,explist,,,,,,,,,,,,,,2,1,1,2,,,,,,,,,,,,,,,,,,,,,,,,,0,,0,83,369340,1500,g,1228,370568,0,4,0,17,371606,0,7,1546,373152,1,,0,18,373172,0,,0,0,Thai_F2_maa21-1,0,,0,0,370840,0,g,749,371589,exproc,block1alist,F2,maa,1,21
assim_main_vietnamese_500ms,418,1,<?xml version="1.0"?>\n<Clock xmlns:dt="urn:schemas-microsoft-com:datatypes"><Description dt:dt="string">E-Prime Primary Realtime Clock</Description><StartTime><Timestamp dt:dt="int">0</Timestamp><DateUtc dt:dt="string">2018-08-28T05:21:29Z</DateUtc></StartTime><FrequencyChanges><FrequencyChange><Frequency dt:dt="r8">2742275</Frequency><Timestamp dt:dt="r8">10321096558</Timestamp><Current dt:dt="r8">0</Current><DateUtc dt:dt="string">2018-08-28T05:21:29Z</DateUtc></FrequencyChange></FrequencyChanges></Clock>\n,assim_main_vietnamese_500ms-418-1,60.014,1.0.0.84,1,1731572990,Professional,2.0.10.353,2.0.10.353,08-28-2018,28-Aug-18 5:21:29 AM,15:21:29,2.0.10.248,14,1,1,4,,,,,,,,,,,,,,,,,,,,,,,,,,,,,,,,block1,explist,,,,,,,,,,,,,,3,3,1,3,,,,,,,,,,,,,,,,,,,,,,,,,1,,0,100,374272,1500,,0,0,0,4,0,7,376422,0,7,1858,378280,1,,0,23,378305,0,,0,0,Thai_F2_maa315-2,0,,0,0,375772,0,h,643,376415,exproc,block1alist,F2,maa,2,315
assim_main_vietnamese_500ms,418,1,<?xml version="1.0"?>\n<Clock xmlns:dt="urn:schemas-microsoft-com:datatypes"><Description dt:dt="string">E-Prime Primary Realtime Clock</Description><StartTime><Timestamp dt:dt="int">0</Timestamp><DateUtc dt:dt="string">2018-08-28T05:21:29Z</DateUtc></StartTime><FrequencyChanges><FrequencyChange><Frequency dt:dt="r8">2742275</Frequency><Timestamp dt:dt="r8">10321096558</Timestamp><Current dt:dt="r8">0</Current><DateUtc dt:dt="string">2018-08-28T05:21:29Z</DateUtc></FrequencyChange></FrequencyChanges></Clock>\n,assim_main_vietnamese_500ms-418-1,60.014,1.0.0.84,1,1731572990,Professional,2.0.10.353,2.0.10.353,08-28-2018,28-Aug-18 5:21:29 AM,15:21:29,2.0.10.248,14,1,1,4,,,,,,,,,,,,,,,,,,,,,,,,,,,,,,,,block1,explist,,,,,,,,,,,,,,4,7,1,4,,,,,,,,,,,,,,,,,,,,,,,,,1,,0,99,379404,1500,,0,0,0,4,1,8,381670,0,7,2438,384108,1,,0,11,384120,0,,0,0,Thai_F1_maa241-5,0,,0,0,380904,0,d,758,381662,exproc,block1alist,F2,maa,5,241
assim_main_vietnamese_500ms,418,1,<?xml version="1.0"?>\n<Clock xmlns:dt="urn:schemas-microsoft-com:datatypes"><Description dt:dt="string">E-Prime Primary Realtime Clock</Description><StartTime><Timestamp dt:dt="int">0</Timestamp><DateUtc dt:dt="string">2018-08-28T05:21:29Z</DateUtc></StartTime><FrequencyChanges><FrequencyChange><Frequency dt:dt="r8">2742275</Frequency><Timestamp dt:dt="r8">10321096558</Timestamp><Current dt:dt="r8">0</Current><DateUtc dt:dt="string">2018-08-28T05:21:29Z</DateUtc></FrequencyChange></FrequencyChanges></Clock>\n,assim_main_vietnamese_500ms-418-1,60.014,1.0.0.84,1,1731572990,Professional,2.0.10.353,2.0.10.353,08-28-2018,28-Aug-18 5:21:29 AM,15:21:29,2.0.10.248,14,1,1,4,,,,,,,,,,,,,,,,,,,,,,,,,,,,,,,,block1,explist,,,,,,,,,,,,,,5,2,1,5,,,,,,,,,,,,,,,,,,,,,,,,,0,,1,116,385236,1500,d,1122,386358,0,4,0,6,387119,0,7,441,387560,1,,0,23,387586,0,,0,0,Thai_F2_maa241-3,0,,0,0,386736,0,d,377,387113,exproc,block1alist,F2,maa,3,241
assim_main_vietnamese_500ms,418,1,<?xml version="1.0"?>\n<Clock xmlns:dt="urn:schemas-microsoft-com:datatypes"><Description dt:dt="string">E-Prime Primary Realtime Clock</Description><StartTime><Timestamp dt:dt="int">0</Timestamp><DateUtc dt:dt="string">2018-08-28T05:21:29Z</DateUtc></StartTime><FrequencyChanges><FrequencyChange><Frequency dt:dt="r8">2742275</Frequency><Timestamp dt:dt="r8">10321096558</Timestamp><Current dt:dt="r8">0</Current><DateUtc dt:dt="string">2018-08-28T05:21:29Z</DateUtc></FrequencyChange></FrequencyChanges></Clock>\n,assim_main_vietnamese_500ms-418-1,60.014,1.0.0.84,1,1731572990,Professional,2.0.10.353,2.0.10.353,08-28-2018,28-Aug-18 5:21:29 AM,15:21:29,2.0.10.248,14,1,1,4,,,,,,,,,,,,,,,,,,,,,,,,,,,,,,,,block1,explist,,,,,,,,,,,,,,6,4,1,6,,,,,,,,,,,,,,,,,,,,,,,,,0,,0,100,388686,1499,g,1305,389991,0,4,0,14,390502,0,7,846,391348,1,,0,20,391368,0,,0,0,Thai_F2_maa33-2,0,,0,-1,390185,0,g,303,390488,exproc,block1alist,F2,maa,2,33
assim_main_vietnamese_500ms,418,1,<?xml version="1.0"?>\n<Clock xmlns:dt="urn:schemas-microsoft-com:datatypes"><Description dt:dt="string">E-Prime Primary Realtime Clock</Description><StartTime><Timestamp dt:dt="int">0</Timestamp><DateUtc dt:dt="string">2018-08-28T05:21:29Z</DateUtc></StartTime><FrequencyChanges><FrequencyChange><Frequency dt:dt="r8">2742275</Frequency><Timestamp dt:dt="r8">10321096558</Timestamp><Current dt:dt="r8">0</Current><DateUtc dt:dt="string">2018-08-28T05:21:29Z</DateUtc></FrequencyChange></FrequencyChanges></Clock>\n,assim_main_vietnamese_500ms-418-1,60.014,1.0.0.84,1,1731572990,Professional,2.0.10.353,2.0.10.353,08-28-2018,28-Aug-18 5:21:29 AM,15:21:29,2.0.10.248,14,1,1,4,,,,,,,,,,,,,,,,,,,,,,,,,,,,,,,,block1,explist,,,,,,,,,,,,,,7,6,1,7,,,,,,,,,,,,,,,,,,,,,,,,,1,,0,133,392501,1500,,0,0,0,4,0,13,394184,0,5,1508,395692,1,,0,24,395717,0,,0,0,Thai_F1_maa21-5,0,,0,0,394001,0,g,170,394171,exproc,block1alist,F2,maa,5,21
assim_main_vietnamese_500ms,418,1,<?xml version="1.0"?>\n<Clock xmlns:dt="urn:schemas-microsoft-com:datatypes"><Description dt:dt="string">E-Prime Primary Realtime Clock</Description><StartTime><Timestamp dt:dt="int">0</Timestamp><DateUtc dt:dt="string">2018-08-28T05:21:29Z</DateUtc></StartTime><FrequencyChanges><FrequencyChange><Frequency dt:dt="r8">2742275</Frequency><Timestamp dt:dt="r8">10321096558</Timestamp><Current dt:dt="r8">0</Current><DateUtc dt:dt="string">2018-08-28T05:21:29Z</DateUtc></FrequencyChange></FrequencyChanges></Clock>\n,assim_main_vietnamese_500ms-418-1,60.014,1.0.0.84,1,1731572990,Professional,2.0.10.353,2.0.10.353,08-28-2018,28-Aug-18 5:21:29 AM,15:21:29,2.0.10.248,14,1,1,4,,,,,,,,,,,,,,,,,,,,,,,,,,,,,,,,block1,explist,,,,,,,,,,,,,,8,8,1,8,,,,,,,,,,,,,,,,,,,,,,,,,1,,1,133,396850,1500,,0,0,0,4,0,13,398450,0,6,1294,399744,1,,0,18,399766,0,,0,0,Thai_F1_maa315-3,0,,0,0,398350,0,h,87,398437,exproc,block1alist,F2,maa,3,315
assim_main_vietnamese_500ms,418,1,<?xml version="1.0"?>\n<Clock xmlns:dt="urn:schemas-microsoft-com:datatypes"><Description dt:dt="string">E-Prime Primary Realtime Clock</Description><StartTime><Timestamp dt:dt="int">0</Timestamp><DateUtc dt:dt="string">2018-08-28T05:21:29Z</DateUtc></StartTime><FrequencyChanges><FrequencyChange><Frequency dt:dt="r8">2742275</Frequency><Timestamp dt:dt="r8">10321096558</Timestamp><Current dt:dt="r8">0</Current><DateUtc dt:dt="string">2018-08-28T05:21:29Z</DateUtc></FrequencyChange></FrequencyChanges></Clock>\n,assim_main_vietnamese_500ms-418-1,60.014,1.0.0.84,1,1731572990,Professional,2.0.10.353,2.0.10.353,08-28-2018,28-Aug-18 5:21:29 AM,15:21:29,2.0.10.248,14,1,1,4,,,,,,,,,,,,,,,,,,,,,,,,,,,,,,,,block1,explist,,,,,,,,,,,,,,9,9,1,9,,,,,,,,,,,,,,,,,,,,,,,,,1,,0,117,400883,1499,,0,0,0,4,1,8,403082,0,5,725,403807,1,,0,25,403832,0,,0,0,Thai_F1_maa33-5,0,,1,-1,402382,0,g,692,403074,exproc,block1alist,F2,maa,5,33
assim_main_vietnamese_500ms,418,1,<?xml version="1.0"?>\n<Clock xmlns:dt="urn:schemas-microsoft-com:datatypes"><Description dt:dt="string">E-Prime Primary Realtime Clock</Description><StartTime><Timestamp dt:dt="int">0</Timestamp><DateUtc dt:dt="string">2018-08-28T05:21:29Z</DateUtc></StartTime><FrequencyChanges><FrequencyChange><Frequency dt:dt="r8">2742275</Frequency><Timestamp dt:dt="r8">10321096558</Timestamp><Current dt:dt="r8">0</Current><DateUtc dt:dt="string">2018-08-28T05:21:29Z</DateUtc></FrequencyChange></FrequencyChanges></Clock>\n,assim_main_vietnamese_500ms-418-1,60.014,1.0.0.84,1,1731572990,Professional,2.0.10.353,2.0.10.353,08-28-2018,28-Aug-18 5:21:29 AM,15:21:29,2.0.10.248,14,1,1,4,,,,,,,,,,,,,,,,,,,,,,,,,,,,,,,,block1,explist,,,,,,,,,,,,,,10,5,1,10,,,,,,,,,,,,,,,,,,,,,,,,,1,,0,100,404932,1500,,0,0,0,4,0,17,406565,0,6,870,407435,1,,0,12,407448,0,,0,0,Thai_F2_maa45-1,0,,0,0,406432,0,j,116,406548,exproc,block1alist,F2,maa,1,45
assim_main_vietnamese_500ms,418,1,<?xml version="1.0"?>\n<Clock xmlns:dt="urn:schemas-microsoft-com:datatypes"><Description dt:dt="string">E-Prime Primary Realtime Clock</Description><StartTime><Timestamp dt:dt="int">0</Timestamp><DateUtc dt:dt="string">2018-08-28T05:21:29Z</DateUtc></StartTime><FrequencyChanges><FrequencyChange><Frequency dt:dt="r8">2742275</Frequency><Timestamp dt:dt="r8">10321096558</Timestamp><Current dt:dt="r8">0</Current><DateUtc dt:dt="string">2018-08-28T05:21:29Z</DateUtc></FrequencyChange></FrequencyChanges></Clock>\n,assim_main_vietnamese_500ms-418-1,60.014,1.0.0.84,1,1731572990,Professional,2.0.10.353,2.0.10.353,08-28-2018,28-Aug-18 5:21:29 AM,15:21:29,2.0.10.248,14,1,1,4,,,,,,,,,,,,,,,,,,,,,,,,,,,,,,,,block1,explist,,,,,,,,,,,,,,11,,,,7,1,1,,,,,,,,,,,,,,,,,,,,,,1,,1,116,408564,1500,,0,0,0,4,0,18,410847,0,6,823,411670,1,,0,25,411697,0,,0,0,Thai_F2_mii241-3,0,,0,0,410064,0,d,765,410829,exproc,block1blist,F2,mii,3,241
assim_main_vietnamese_500ms,418,1,<?xml version="1.0"?>\n<Clock xmlns:dt="urn:schemas-microsoft-com:datatypes"><Description dt:dt="string">E-Prime Primary Realtime Clock</Description><StartTime><Timestamp dt:dt="int">0</Timestamp><DateUtc dt:dt="string">2018-08-28T05:21:29Z</DateUtc></StartTime><FrequencyChanges><FrequencyChange><Frequency dt:dt="r8">2742275</Frequency><Timestamp dt:dt="r8">10321096558</Timestamp><Current dt:dt="r8">0</Current><DateUtc dt:dt="string">2018-08-28T05:21:29Z</DateUtc></FrequencyChange></FrequencyChanges></Clock>\n,assim_main_vietnamese_500ms-418-1,60.014,1.0.0.84,1,1731572990,Professional,2.0.10.353,2.0.10.353,08-28-2018,28-Aug-18 5:21:29 AM,15:21:29,2.0.10.248,14,1,1,4,,,,,,,,,,,,,,,,,,,,,,,,,,,,,,,,block1,explist,,,,,,,,,,,,,,12,,,,10,1,2,,,,,,,,,,,,,,,,,,,,,,0,,1,116,412813,1500,j,1478,414291,0,4,0,8,415346,0,6,668,416014,1,,0,12,416029,0,,0,0,Thai_F2_mii45-3,0,,0,0,414313,0,j,1025,415338,exproc,block1blist,F2,mii,3,45
assim_main_vietnamese_500ms,418,1,<?xml version="1.0"?>\n<Clock xmlns:dt="urn:schemas-microsoft-com:datatypes"><Description dt:dt="string">E-Prime Primary Realtime Clock</Description><StartTime><Timestamp dt:dt="int">0</Timestamp><DateUtc dt:dt="string">2018-08-28T05:21:29Z</DateUtc></StartTime><FrequencyChanges><FrequencyChange><Frequency dt:dt="r8">2742275</Frequency><Timestamp dt:dt="r8">10321096558</Timestamp><Current dt:dt="r8">0</Current><DateUtc dt:dt="string">2018-08-28T05:21:29Z</DateUtc></FrequencyChange></FrequencyChanges></Clock>\n,assim_main_vietnamese_500ms-418-1,60.014,1.0.0.84,1,1731572990,Professional,2.0.10.353,2.0.10.353,08-28-2018,28-Aug-18 5:21:29 AM,15:21:29,2.0.10.248,14,1,1,4,,,,,,,,,,,,,,,,,,,,,,,,,,,,,,,,block1,explist,,,,,,,,,,,,,,13,,,,2,1,3,,,,,,,,,,,,,,,,,,,,,,0,,0,117,417146,1499,j,1191,418337,0,4,0,15,419812,0,6,793,420605,1,,0,19,420628,0,,0,0,Thai_F2_mii241-2,0,,1,-1,418645,0,d,1152,419797,exproc,block1blist,F2,mii,2,241
assim_main_vietnamese_500ms,418,1,<?xml version="1.0"?>\n<Clock xmlns:dt="urn:schemas-microsoft-com:datatypes"><Description dt:dt="string">E-Prime Primary Realtime Clock</Description><StartTime><Timestamp dt:dt="int">0</Timestamp><DateUtc dt:dt="string">2018-08-28T05:21:29Z</DateUtc></StartTime><FrequencyChanges><FrequencyChange><Frequency dt:dt="r8">2742275</Frequency><Timestamp dt:dt="r8">10321096558</Timestamp><Current dt:dt="r8">0</Current><DateUtc dt:dt="string">2018-08-28T05:21:29Z</DateUtc></FrequencyChange></FrequencyChanges></Clock>\n,assim_main_vietnamese_500ms-418-1,60.014,1.0.0.84,1,1731572990,Professional,2.0.10.353,2.0.10.353,08-28-2018,28-Aug-18 5:21:29 AM,15:21:29,2.0.10.248,14,1,1,4,,,,,,,,,,,,,,,,,,,,,,,,,,,,,,,,block1,explist,,,,,,,,,,,,,,14,,,,3,1,4,,,,,,,,,,,,,,,,,,,,,,1,,1,133,421761,1500,,0,0,0,4,0,11,423378,0,6,570,423948,1,,0,11,423961,0,,0,0,Thai_F2_mii315-1,0,,0,0,423261,0,h,106,423367,exproc,block1blist,F2,mii,1,315
assim_main_vietnamese_500ms,418,1,<?xml version="1.0"?>\n<Clock xmlns:dt="urn:schemas-microsoft-com:datatypes"><Description dt:dt="string">E-Prime Primary Realtime Clock</Description><StartTime><Timestamp dt:dt="int">0</Timestamp><DateUtc dt:dt="string">2018-08-28T05:21:29Z</DateUtc></StartTime><FrequencyChanges><FrequencyChange><Frequency dt:dt="r8">2742275</Frequency><Timestamp dt:dt="r8">10321096558</Timestamp><Current dt:dt="r8">0</Current><DateUtc dt:dt="string">2018-08-28T05:21:29Z</DateUtc></FrequencyChange></FrequencyChanges></Clock>\n,assim_main_vietnamese_500ms-418-1,60.014,1.0.0.84,1,1731572990,Professional,2.0.10.353,2.0.10.353,08-28-2018,28-Aug-18 5:21:29 AM,15:21:29,2.0.10.248,14,1,1,4,,,,,,,,,,,,,,,,,,,,,,,,,,,,,,,,block1,explist,,,,,,,,,,,,,,15,,,,5,1,5,,,,,,,,,,,,,,,,,,,,,,1,,0,100,425061,1499,,0,0,0,4,1,6,426760,0,6,565,427325,1,,0,15,427344,0,,0,0,Thai_F2_mii45-2,0,,0,-1,426560,0,j,194,426754,exproc,block1blist,F2,mii,2,45
assim_main_vietnamese_500ms,418,1,<?xml version="1.0"?>\n<Clock xmlns:dt="urn:schemas-microsoft-com:datatypes"><Description dt:dt="string">E-Prime Primary Realtime Clock</Description><StartTime><Timestamp dt:dt="int">0</Timestamp><DateUtc dt:dt="string">2018-08-28T05:21:29Z</DateUtc></StartTime><FrequencyChanges><FrequencyChange><Frequency dt:dt="r8">2742275</Frequency><Timestamp dt:dt="r8">10321096558</Timestamp><Current dt:dt="r8">0</Current><DateUtc dt:dt="string">2018-08-28T05:21:29Z</DateUtc></FrequencyChange></FrequencyChanges></Clock>\n,assim_main_vietnamese_500ms-418-1,60.014,1.0.0.84,1,1731572990,Professional,2.0.10.353,2.0.10.353,08-28-2018,28-Aug-18 5:21:29 AM,15:21:29,2.0.10.248,14,1,1,4,,,,,,,,,,,,,,,,,,,,,,,,,,,,,,,,block1,explist,,,,,,,,,,,,,,16,,,,8,1,6,,,,,,,,,,,,,,,,,,,,,,1,,0,116,428460,1500,,0,0,0,4,0,19,430643,0,6,1236,431879,1,,0,13,431893,0,,0,0,Thai_F2_mii315-5,0,,0,0,429960,0,h,664,430624,exproc,block1blist,F2,mii,5,315
assim_main_vietnamese_500ms,418,1,<?xml version="1.0"?>\n<Clock xmlns:dt="urn:schemas-microsoft-com:datatypes"><Description dt:dt="string">E-Prime Primary Realtime Clock</Description><StartTime><Timestamp dt:dt="int">0</Timestamp><DateUtc dt:dt="string">2018-08-28T05:21:29Z</DateUtc></StartTime><FrequencyChanges><FrequencyChange><Frequency dt:dt="r8">2742275</Frequency><Timestamp dt:dt="r8">10321096558</Timestamp><Current dt:dt="r8">0</Current><DateUtc dt:dt="string">2018-08-28T05:21:29Z</DateUtc></FrequencyChange></FrequencyChanges></Clock>\n,assim_main_vietnamese_500ms-418-1,60.014,1.0.0.84,1,1731572990,Professional,2.0.10.353,2.0.10.353,08-28-2018,28-Aug-18 5:21:29 AM,15:21:29,2.0.10.248,14,1,1,4,,,,,,,,,,,,,,,,,,,,,,,,,,,,,,,,block1,explist,,,,,,,,,,,,,,17,,,,9,1,7,,,,,,,,,,,,,,,,,,,,,,0,,0,133,433026,1499,g,1498,434524,0,4,0,14,435508,0,7,539,436047,1,,0,27,436075,0,,0,0,Thai_F2_mii33-5,0,,0,-1,434525,0,g,969,435494,exproc,block1blist,F2,mii,5,33
assim_main_vietnamese_500ms,418,1,<?xml version="1.0"?>\n<Clock xmlns:dt="urn:schemas-microsoft-com:datatypes"><Description dt:dt="string">E-Prime Primary Realtime Clock</Description><StartTime><Timestamp dt:dt="int">0</Timestamp><DateUtc dt:dt="string">2018-08-28T05:21:29Z</DateUtc></StartTime><FrequencyChanges><FrequencyChange><Frequency dt:dt="r8">2742275</Frequency><Timestamp dt:dt="r8">10321096558</Timestamp><Current dt:dt="r8">0</Current><DateUtc dt:dt="string">2018-08-28T05:21:29Z</DateUtc></FrequencyChange></FrequencyChanges></Clock>\n,assim_main_vietnamese_500ms-418-1,60.014,1.0.0.84,1,1731572990,Professional,2.0.10.353,2.0.10.353,08-28-2018,28-Aug-18 5:21:29 AM,15:21:29,2.0.10.248,14,1,1,4,,,,,,,,,,,,,,,,,,,,,,,,,,,,,,,,block1,explist,,,,,,,,,,,,,,18,,,,4,1,8,,,,,,,,,,,,,,,,,,,,,,1,,0,116,437191,1500,,0,0,0,4,0,13,439424,0,7,603,440027,1,,0,13,440041,0,,0,0,Thai_F2_mii33-3,0,,0,0,438691,0,g,720,439411,exproc,block1blist,F2,mii,3,33
assim_main_vietnamese_500ms,418,1,<?xml version="1.0"?>\n<Clock xmlns:dt="urn:schemas-microsoft-com:datatypes"><Description dt:dt="string">E-Prime Primary Realtime Clock</Description><StartTime><Timestamp dt:dt="int">0</Timestamp><DateUtc dt:dt="string">2018-08-28T05:21:29Z</DateUtc></StartTime><FrequencyChanges><FrequencyChange><Frequency dt:dt="r8">2742275</Frequency><Timestamp dt:dt="r8">10321096558</Timestamp><Current dt:dt="r8">0</Current><DateUtc dt:dt="string">2018-08-28T05:21:29Z</DateUtc></FrequencyChange></FrequencyChanges></Clock>\n,assim_main_vietnamese_500ms-418-1,60.014,1.0.0.84,1,1731572990,Professional,2.0.10.353,2.0.10.353,08-28-2018,28-Aug-18 5:21:29 AM,15:21:29,2.0.10.248,14,1,1,4,,,,,,,,,,,,,,,,,,,,,,,,,,,,,,,,block1,explist,,,,,,,,,,,,,,19,,,,6,1,9,,,,,,,,,,,,,,,,,,,,,,1,,0,133,441174,1499,,0,0,0,4,1,15,442773,0,7,652,443425,1,,0,28,443457,0,,0,0,Thai_F2_mii21-5,0,,1,-1,442673,0,g,85,442758,exproc,block1blist,F2,mii,5,21
assim_main_vietnamese_500ms,418,1,<?xml version="1.0"?>\n<Clock xmlns:dt="urn:schemas-microsoft-com:datatypes"><Description dt:dt="string">E-Prime Primary Realtime Clock</Description><StartTime><Timestamp dt:dt="int">0</Timestamp><DateUtc dt:dt="string">2018-08-28T05:21:29Z</DateUtc></StartTime><FrequencyChanges><FrequencyChange><Frequency dt:dt="r8">2742275</Frequency><Timestamp dt:dt="r8">10321096558</Timestamp><Current dt:dt="r8">0</Current><DateUtc dt:dt="string">2018-08-28T05:21:29Z</DateUtc></FrequencyChange></FrequencyChanges></Clock>\n,assim_main_vietnamese_500ms-418-1,60.014,1.0.0.84,1,1731572990,Professional,2.0.10.353,2.0.10.353,08-28-2018,28-Aug-18 5:21:29 AM,15:21:29,2.0.10.248,14,1,1,4,,,,,,,,,,,,,,,,,,,,,,,,,,,,,,,,block1,explist,,,,,,,,,,,,,,20,,,,1,1,10,,,,,,,,,,,,,,,,,,,,,,0,,0,116,444573,1500,g,1461,446034,0,4,0,12,447156,0,6,173,447329,1,,0,25,447356,0,,0,0,Thai_F2_mii21-2,0,,0,0,446073,0,g,1071,447144,exproc,block1blist,F2,mii,2,21
assim_main_vietnamese_500ms,418,1,<?xml version="1.0"?>\n<Clock xmlns:dt="urn:schemas-microsoft-com:datatypes"><Description dt:dt="string">E-Prime Primary Realtime Clock</Description><StartTime><Timestamp dt:dt="int">0</Timestamp><DateUtc dt:dt="string">2018-08-28T05:21:29Z</DateUtc></StartTime><FrequencyChanges><FrequencyChange><Frequency dt:dt="r8">2742275</Frequency><Timestamp dt:dt="r8">10321096558</Timestamp><Current dt:dt="r8">0</Current><DateUtc dt:dt="string">2018-08-28T05:21:29Z</DateUtc></FrequencyChange></FrequencyChanges></Clock>\n,assim_main_vietnamese_500ms-418-1,60.014,1.0.0.84,1,1731572990,Professional,2.0.10.353,2.0.10.353,08-28-2018,28-Aug-18 5:21:29 AM,15:21:29,2.0.10.248,15,6,1,5,,,,,,,,,,,,,,,,,,,,,,,,,,,,,,,,block6,explist,,,,,,,,,,,,,,1,,,,,,,,,,,,,,,,,,,,,,3,1,1,,,,1,,0,115,451388,1500,,0,0,0,4,0,5,453971,0,7,1103,455074,1,,0,9,455087,0,,0,0,Thai_F2_mii315-1,0,,0,0,452888,0,h,1078,453966,exproc,block6list,F2,mii,1,315
assim_main_vietnamese_500ms,418,1,<?xml version="1.0"?>\n<Clock xmlns:dt="urn:schemas-microsoft-com:datatypes"><Description dt:dt="string">E-Prime Primary Realtime Clock</Description><StartTime><Timestamp dt:dt="int">0</Timestamp><DateUtc dt:dt="string">2018-08-28T05:21:29Z</DateUtc></StartTime><FrequencyChanges><FrequencyChange><Frequency dt:dt="r8">2742275</Frequency><Timestamp dt:dt="r8">10321096558</Timestamp><Current dt:dt="r8">0</Current><DateUtc dt:dt="string">2018-08-28T05:21:29Z</DateUtc></FrequencyChange></FrequencyChanges></Clock>\n,assim_main_vietnamese_500ms-418-1,60.014,1.0.0.84,1,1731572990,Professional,2.0.10.353,2.0.10.353,08-28-2018,28-Aug-18 5:21:29 AM,15:21:29,2.0.10.248,15,6,1,5,,,,,,,,,,,,,,,,,,,,,,,,,,,,,,,,block6,explist,,,,,,,,,,,,,,2,,,,,,,,,,,,,,,,,,,,,,4,1,2,,,,1,,0,150,456237,1500,,0,0,0,4,0,20,458353,0,7,1539,459892,1,,0,26,459920,0,,0,0,Thai_F2_mii33-3,0,,0,0,457737,0,g,596,458333,exproc,block6list,F2,mii,3,33
assim_main_vietnamese_500ms,418,1,<?xml version="1.0"?>\n<Clock xmlns:dt="urn:schemas-microsoft-com:datatypes"><Description dt:dt="string">E-Prime Primary Realtime Clock</Description><StartTime><Timestamp dt:dt="int">0</Timestamp><DateUtc dt:dt="string">2018-08-28T05:21:29Z</DateUtc></StartTime><FrequencyChanges><FrequencyChange><Frequency dt:dt="r8">2742275</Frequency><Timestamp dt:dt="r8">10321096558</Timestamp><Current dt:dt="r8">0</Current><DateUtc dt:dt="string">2018-08-28T05:21:29Z</DateUtc></FrequencyChange></FrequencyChanges></Clock>\n,assim_main_vietnamese_500ms-418-1,60.014,1.0.0.84,1,1731572990,Professional,2.0.10.353,2.0.10.353,08-28-2018,28-Aug-18 5:21:29 AM,15:21:29,2.0.10.248,15,6,1,5,,,,,,,,,,,,,,,,,,,,,,,,,,,,,,,,block6,explist,,,,,,,,,,,,,,3,,,,,,,,,,,,,,,,,,,,,,18,1,3,,,,1,,0,133,461053,1499,,0,0,0,4,0,6,463552,0,7,769,464321,1,,0,28,464352,0,,0,0,Thai_F4_mii315-6,0,,0,-1,462552,0,h,994,463546,exproc,block6list,F4,mii,6,315
assim_main_vietnamese_500ms,418,1,<?xml version="1.0"?>\n<Clock xmlns:dt="urn:schemas-microsoft-com:datatypes"><Description dt:dt="string">E-Prime Primary Realtime Clock</Description><StartTime><Timestamp dt:dt="int">0</Timestamp><DateUtc dt:dt="string">2018-08-28T05:21:29Z</DateUtc></StartTime><FrequencyChanges><FrequencyChange><Frequency dt:dt="r8">2742275</Frequency><Timestamp dt:dt="r8">10321096558</Timestamp><Current dt:dt="r8">0</Current><DateUtc dt:dt="string">2018-08-28T05:21:29Z</DateUtc></FrequencyChange></FrequencyChanges></Clock>\n,assim_main_vietnamese_500ms-418-1,60.014,1.0.0.84,1,1731572990,Professional,2.0.10.353,2.0.10.353,08-28-2018,28-Aug-18 5:21:29 AM,15:21:29,2.0.10.248,15,6,1,5,,,,,,,,,,,,,,,,,,,,,,,,,,,,,,,,block6,explist,,,,,,,,,,,,,,4,,,,,,,,,,,,,,,,,,,,,,9,1,4,,,,1,,0,100,465452,1499,,0,0,0,4,1,18,467384,0,7,1658,469042,1,,0,21,469067,0,,0,0,Thai_F4_mii33-5,0,,0,-1,466951,0,g,415,467366,exproc,block6list,F4,mii,5,33
assim_main_vietnamese_500ms,418,1,<?xml version="1.0"?>\n<Clock xmlns:dt="urn:schemas-microsoft-com:datatypes"><Description dt:dt="string">E-Prime Primary Realtime Clock</Description><StartTime><Timestamp dt:dt="int">0</Timestamp><DateUtc dt:dt="string">2018-08-28T05:21:29Z</DateUtc></StartTime><FrequencyChanges><FrequencyChange><Frequency dt:dt="r8">2742275</Frequency><Timestamp dt:dt="r8">10321096558</Timestamp><Current dt:dt="r8">0</Current><DateUtc dt:dt="string">2018-08-28T05:21:29Z</DateUtc></FrequencyChange></FrequencyChanges></Clock>\n,assim_main_vietnamese_500ms-418-1,60.014,1.0.0.84,1,1731572990,Professional,2.0.10.353,2.0.10.353,08-28-2018,28-Aug-18 5:21:29 AM,15:21:29,2.0.10.248,15,6,1,5,,,,,,,,,,,,,,,,,,,,,,,,,,,,,,,,block6,explist,,,,,,,,,,,,,,5,,,,,,,,,,,,,,,,,,,,,,13,1,5,,,,1,,0,100,470167,1500,,0,0,0,4,0,9,472983,0,7,671,473654,1,,0,10,473666,0,,0,0,Thai_F2_mii315-5,0,,0,0,471667,0,h,1307,472974,exproc,block6list,F2,mii,5,315
assim_main_vietnamese_500ms,418,1,<?xml version="1.0"?>\n<Clock xmlns:dt="urn:schemas-microsoft-com:datatypes"><Description dt:dt="string">E-Prime Primary Realtime Clock</Description><StartTime><Timestamp dt:dt="int">0</Timestamp><DateUtc dt:dt="string">2018-08-28T05:21:29Z</DateUtc></StartTime><FrequencyChanges><FrequencyChange><Frequency dt:dt="r8">2742275</Frequency><Timestamp dt:dt="r8">10321096558</Timestamp><Current dt:dt="r8">0</Current><DateUtc dt:dt="string">2018-08-28T05:21:29Z</DateUtc></FrequencyChange></FrequencyChanges></Clock>\n,assim_main_vietnamese_500ms-418-1,60.014,1.0.0.84,1,1731572990,Professional,2.0.10.353,2.0.10.353,08-28-2018,28-Aug-18 5:21:29 AM,15:21:29,2.0.10.248,15,6,1,5,,,,,,,,,,,,,,,,,,,,,,,,,,,,,,,,block6,explist,,,,,,,,,,,,,,6,,,,,,,,,,,,,,,,,,,,,,8,1,6,,,,1,,1,133,474799,1500,,0,0,0,4,1,15,476732,0,5,1579,478311,1,,0,20,478332,0,,0,0,Thai_F4_mii315-4,0,,0,0,476299,0,h,418,476717,exproc,block6list,F4,mii,4,315
assim_main_vietnamese_500ms,418,1,<?xml version="1.0"?>\n<Clock xmlns:dt="urn:schemas-microsoft-com:datatypes"><Description dt:dt="string">E-Prime Primary Realtime Clock</Description><StartTime><Timestamp dt:dt="int">0</Timestamp><DateUtc dt:dt="string">2018-08-28T05:21:29Z</DateUtc></StartTime><FrequencyChanges><FrequencyChange><Frequency dt:dt="r8">2742275</Frequency><Timestamp dt:dt="r8">10321096558</Timestamp><Current dt:dt="r8">0</Current><DateUtc dt:dt="string">2018-08-28T05:21:29Z</DateUtc></FrequencyChange></FrequencyChanges></Clock>\n,assim_main_vietnamese_500ms-418-1,60.014,1.0.0.84,1,1731572990,Professional,2.0.10.353,2.0.10.353,08-28-2018,28-Aug-18 5:21:29 AM,15:21:29,2.0.10.248,15,6,1,5,,,,,,,,,,,,,,,,,,,,,,,,,,,,,,,,block6,explist,,,,,,,,,,,,,,7,,,,,,,,,,,,,,,,,,,,,,7,1,7,,,,1,,0,100,479432,1499,,0,0,0,4,0,15,483264,0,7,1028,484292,1,,0,19,484314,0,,0,0,Thai_F4_mii241-2,0,,1,-1,480931,0,j,2318,483249,exproc,block6list,F4,mii,2,241
assim_main_vietnamese_500ms,418,1,<?xml version="1.0"?>\n<Clock xmlns:dt="urn:schemas-microsoft-com:datatypes"><Description dt:dt="string">E-Prime Primary Realtime Clock</Description><StartTime><Timestamp dt:dt="int">0</Timestamp><DateUtc dt:dt="string">2018-08-28T05:21:29Z</DateUtc></StartTime><FrequencyChanges><FrequencyChange><Frequency dt:dt="r8">2742275</Frequency><Timestamp dt:dt="r8">10321096558</Timestamp><Current dt:dt="r8">0</Current><DateUtc dt:dt="string">2018-08-28T05:21:29Z</DateUtc></FrequencyChange></FrequencyChanges></Clock>\n,assim_main_vietnamese_500ms-418-1,60.014,1.0.0.84,1,1731572990,Professional,2.0.10.353,2.0.10.353,08-28-2018,28-Aug-18 5:21:29 AM,15:21:29,2.0.10.248,15,6,1,5,,,,,,,,,,,,,,,,,,,,,,,,,,,,,,,,block6,explist,,,,,,,,,,,,,,8,,,,,,,,,,,,,,,,,,,,,,5,1,8,,,,1,,1,116,485430,1500,,0,0,0,4,0,15,487997,0,6,1295,489292,1,,0,19,489313,0,,0,0,Thai_F2_mii45-2,0,,0,0,486930,0,j,1052,487982,exproc,block6list,F2,mii,2,45
assim_main_vietnamese_500ms,418,1,<?xml version="1.0"?>\n<Clock xmlns:dt="urn:schemas-microsoft-com:datatypes"><Description dt:dt="string">E-Prime Primary Realtime Clock</Description><StartTime><Timestamp dt:dt="int">0</Timestamp><DateUtc dt:dt="string">2018-08-28T05:21:29Z</DateUtc></StartTime><FrequencyChanges><FrequencyChange><Frequency dt:dt="r8">2742275</Frequency><Timestamp dt:dt="r8">10321096558</Timestamp><Current dt:dt="r8">0</Current><DateUtc dt:dt="string">2018-08-28T05:21:29Z</DateUtc></FrequencyChange></FrequencyChanges></Clock>\n,assim_main_vietnamese_500ms-418-1,60.014,1.0.0.84,1,1731572990,Professional,2.0.10.353,2.0.10.353,08-28-2018,28-Aug-18 5:21:29 AM,15:21:29,2.0.10.248,15,6,1,5,,,,,,,,,,,,,,,,,,,,,,,,,,,,,,,,block6,explist,,,,,,,,,,,,,,9,,,,,,,,,,,,,,,,,,,,,,11,1,9,,,,0,,0,133,490446,1500,g,1322,491768,0,4,0,12,493179,0,5,1694,494873,1,,0,22,494895,0,,0,0,Thai_F2_mii21-5,0,,0,0,491946,0,g,1221,493167,exproc,block6list,F2,mii,5,21
assim_main_vietnamese_500ms,418,1,<?xml version="1.0"?>\n<Clock xmlns:dt="urn:schemas-microsoft-com:datatypes"><Description dt:dt="string">E-Prime Primary Realtime Clock</Description><StartTime><Timestamp dt:dt="int">0</Timestamp><DateUtc dt:dt="string">2018-08-28T05:21:29Z</DateUtc></StartTime><FrequencyChanges><FrequencyChange><Frequency dt:dt="r8">2742275</Frequency><Timestamp dt:dt="r8">10321096558</Timestamp><Current dt:dt="r8">0</Current><DateUtc dt:dt="string">2018-08-28T05:21:29Z</DateUtc></FrequencyChange></FrequencyChanges></Clock>\n,assim_main_vietnamese_500ms-418-1,60.014,1.0.0.84,1,1731572990,Professional,2.0.10.353,2.0.10.353,08-28-2018,28-Aug-18 5:21:29 AM,15:21:29,2.0.10.248,15,6,1,5,,,,,,,,,,,,,,,,,,,,,,,,,,,,,,,,block6,explist,,,,,,,,,,,,,,10,,,,,,,,,,,,,,,,,,,,,,16,1,10,,,,0,,1,116,496011,1500,g,1488,497499,0,4,0,7,499277,0,7,1305,500582,1,,0,25,500610,0,,0,0,Thai_F4_mii21-6,0,,0,0,497511,0,g,1759,499270,exproc,block6list,F4,mii,6,21
assim_main_vietnamese_500ms,418,1,<?xml version="1.0"?>\n<Clock xmlns:dt="urn:schemas-microsoft-com:datatypes"><Description dt:dt="string">E-Prime Primary Realtime Clock</Description><StartTime><Timestamp dt:dt="int">0</Timestamp><DateUtc dt:dt="string">2018-08-28T05:21:29Z</DateUtc></StartTime><FrequencyChanges><FrequencyChange><Frequency dt:dt="r8">2742275</Frequency><Timestamp dt:dt="r8">10321096558</Timestamp><Current dt:dt="r8">0</Current><DateUtc dt:dt="string">2018-08-28T05:21:29Z</DateUtc></FrequencyChange></FrequencyChanges></Clock>\n,assim_main_vietnamese_500ms-418-1,60.014,1.0.0.84,1,1731572990,Professional,2.0.10.353,2.0.10.353,08-28-2018,28-Aug-18 5:21:29 AM,15:21:29,2.0.10.248,15,6,1,5,,,,,,,,,,,,,,,,,,,,,,,,,,,,,,,,block6,explist,,,,,,,,,,,,,,11,,,,,,,,,,,,,,,,,,,,,,14,1,11,,,,1,,1,133,501743,1500,,0,0,0,4,0,16,503960,0,7,1946,505906,1,,0,16,505926,0,,0,0,Thai_F2_mii33-5,0,,0,0,503243,0,g,701,503944,exproc,block6list,F2,mii,5,33
assim_main_vietnamese_500ms,418,1,<?xml version="1.0"?>\n<Clock xmlns:dt="urn:schemas-microsoft-com:datatypes"><Description dt:dt="string">E-Prime Primary Realtime Clock</Description><StartTime><Timestamp dt:dt="int">0</Timestamp><DateUtc dt:dt="string">2018-08-28T05:21:29Z</DateUtc></StartTime><FrequencyChanges><FrequencyChange><Frequency dt:dt="r8">2742275</Frequency><Timestamp dt:dt="r8">10321096558</Timestamp><Current dt:dt="r8">0</Current><DateUtc dt:dt="string">2018-08-28T05:21:29Z</DateUtc></FrequencyChange></FrequencyChanges></Clock>\n,assim_main_vietnamese_500ms-418-1,60.014,1.0.0.84,1,1731572990,Professional,2.0.10.353,2.0.10.353,08-28-2018,28-Aug-18 5:21:29 AM,15:21:29,2.0.10.248,15,6,1,5,,,,,,,,,,,,,,,,,,,,,,,,,,,,,,,,block6,explist,,,,,,,,,,,,,,12,,,,,,,,,,,,,,,,,,,,,,19,1,12,,,,1,,0,133,507059,1500,,0,0,0,4,0,20,508842,0,7,960,509802,1,,0,21,509825,0,,0,0,Thai_F4_mii33-6,0,,0,0,508559,0,g,263,508822,exproc,block6list,F4,mii,6,33
