ExperimentName	Subject	Session	Clock.Information	DataFile.Basename	Display.RefreshRate	ExperimentVersion	Group	RandomSeed	RuntimeCapabilities	RuntimeVersion	RuntimeVersionExpected	SessionDate	SessionStartDateTimeUtc	SessionTime	StudioVersion	Block	explist	explist.Cycle	explist.Sample	filename[Block]	insprac1.ACC	insprac1.CRESP	insprac1.DurationError	insprac1.OnsetDelay	insprac1.OnsetTime	insprac1.OnsetToOnsetTime	insprac1.RESP	insprac1.RT	insprac1.RTTime	pracCat.ACC	pracCat.CRESP	pracCat.DurationError	pracCat.OnsetDelay	pracCat.OnsetTime	pracCat.OnsetToOnsetTime	pracCat.RESP	pracCat.RT	pracCat.RTTime	praclist	praclist.Cycle	praclist.Sample	pracRate.ACC	pracRate.CRESP	pracRate.DurationError	pracRate.OnsetDelay	pracRate.OnsetTime	pracRate.OnsetToOnsetTime	pracRate.RESP	pracRate.RT	pracRate.RTTime	Procedure[Block]	Running[Block]	speaker[Block]	syllable[Block]	token[Block]	tone[Block]	waitprac2.ACC	waitprac2.CRESP	waitprac2.DurationError	waitprac2.OnsetDelay	waitprac2.OnsetTime	waitprac2.OnsetToOnsetTime	waitprac2.RESP	waitprac2.RT	waitprac2.RTTime	Trial	block1alist	block1alist.Cycle	block1alist.Sample	block1blist	block1blist.Cycle	block1blist.Sample	block2alist	block2alist.Cycle	block2alist.Sample	block2blist	block2blist.Cycle	block2blist.Sample	block3list	block3list.Cycle	block3list.Sample	block4list	block4list.Cycle	block4list.Sample	block5list	block5list.Cycle	block5list.Sample	block6list	block6list.Cycle	block6list.Sample	block7list	block7list.Cycle	block7list.Sample	expcat.ACC	expcat.CRESP	expcat.DurationError	expcat.OnsetDelay	expcat.OnsetTime	expcat.OnsetToOnsetTime	expcat.RESP	expcat.RT	expcat.RTTime	exprate.ACC	exprate.CRESP	exprate.DurationError	exprate.OnsetDelay	exprate.OnsetTime	exprate.OnsetToOnsetTime	exprate.RESP	exprate.RT	exprate.RTTime	FeedbackDisplay2.ACC	FeedbackDisplay2.CRESP	FeedbackDisplay2.DurationError	FeedbackDisplay2.OnsetDelay	FeedbackDisplay2.OnsetTime	FeedbackDisplay2.OnsetToOnsetTime	FeedbackDisplay2.RESP	FeedbackDisplay2.RT	FeedbackDisplay2.RTTime	filename[Trial]	insex1.ACC	insex1.CRESP	insex1.DurationError	insex1.OnsetDelay	insex1.OnsetTime	insex1.OnsetToOnsetTime	insex1.RESP	insex1.RT	insex1.RTTime	Procedure[Trial]	Running[Trial]	speaker[Trial]	syllable[Trial]	token[Trial]	tone[Trial]
Assim_main_chinese_500ms	401	1	<?xml version="1.0"?>\n<Clock xmlns:dt="urn:schemas-microsoft-com:datatypes"><Description dt:dt="string">E-Prime Primary Realtime Clock</Description><StartTime><Timestamp dt:dt="int">0</Timestamp><DateUtc dt:dt="string">2018-05-17T06:51:10Z</DateUtc></StartTime><FrequencyChanges><FrequencyChange><Frequency dt:dt="r8">2742441</Frequency><Timestamp dt:dt="r8">71645429962</Timestamp><Current dt:dt="r8">0</Current><DateUtc dt:dt="string">2018-05-17T06:51:10Z</DateUtc></FrequencyChange></FrequencyChanges></Clock>\n	Assim_main_chinese_500ms-401-1	60.017	1.0.0.76	1	-1368837126	Professional	2.0.10.353	2.0.10.353	05-17-2018	17-May-18 6:51:10 AM	16:51:10	2.0.10.248	1				Thai_F1_maa315-2	1		0	-1	141960	2999		0	0	1		324	116	140461	1499		0	0	3	1	1	0	4	0	-1	144959	0	7	3735	148694	pracproc	praclist	F1	maa	2	315	1		0	12	148708	0		0	0																																																																							
Assim_main_chinese_500ms	401	1	<?xml version="1.0"?>\n<Clock xmlns:dt="urn:schemas-microsoft-com:datatypes"><Description dt:dt="string">E-Prime Primary Realtime Clock</Description><StartTime><Timestamp dt:dt="int">0</Timestamp><DateUtc dt:dt="string">2018-05-17T06:51:10Z</DateUtc></StartTime><FrequencyChanges><FrequencyChange><Frequency dt:dt="r8">2742441</Frequency><Timestamp dt:dt="r8">71645429962</Timestamp><Current dt:dt="r8">0</Current><DateUtc dt:dt="string">2018-05-17T06:51:10Z</DateUtc></FrequencyChange></FrequencyChanges></Clock>\n	Assim_main_chinese_500ms-401-1	60.017	1.0.0.76	1	-1368837126	Professional	2.0.10.353	2.0.10.353	05-17-2018	17-May-18 6:51:10 AM	16:51:10	2.0.10.248	2				Thai_F1_mii241-1	1		0	-1	151307	3000		0	0	1		0	100	149808	1499		0	0	7	1	2	0	4	0	0	154307	0	7	1808	156115	pracproc	praclist	F1	mii	1	241	1		0	22	156139	0		0	0																																																																							
Assim_main_chinese_500ms	401	1	<?xml version="1.0"?>\n<Clock xmlns:dt="urn:schemas-microsoft-com:datatypes"><Description dt:dt="string">E-Prime Primary Realtime Clock</Description><StartTime><Timestamp dt:dt="int">0</Timestamp><DateUtc dt:dt="string">2018-05-17T06:51:10Z</DateUtc></StartTime><FrequencyChanges><FrequencyChange><Frequency dt:dt="r8">2742441</Frequency><Timestamp dt:dt="r8">71645429962</Timestamp><Current dt:dt="r8">0</Current><DateUtc dt:dt="string">2018-05-17T06:51:10Z</DateUtc></FrequencyChange></FrequencyChanges></Clock>\n	Assim_main_chinese_500ms-401-1	60.017	1.0.0.76	1	-1368837126	Professional	2.0.10.353	2.0.10.353	05-17-2018	17-May-18 6:51:10 AM	16:51:10	2.0.10.248	3				Thai_F1_maa33-4	0		0	0	158722	0	f	1227	159949	1		1	83	157222	1500		0	0	4	1	3	0	4	0	6	159955	0	7	1419	161374	pracproc	praclist	F1	maa	4	33	1		0	14	161388	0		0	0																																																																							
Assim_main_chinese_500ms	401	1	<?xml version="1.0"?>\n<Clock xmlns:dt="urn:schemas-microsoft-com:datatypes"><Description dt:dt="string">E-Prime Primary Realtime Clock</Description><StartTime><Timestamp dt:dt="int">0</Timestamp><DateUtc dt:dt="string">2018-05-17T06:51:10Z</DateUtc></StartTime><FrequencyChanges><FrequencyChange><Frequency dt:dt="r8">2742441</Frequency><Timestamp dt:dt="r8">71645429962</Timestamp><Current dt:dt="r8">0</Current><DateUtc dt:dt="string">2018-05-17T06:51:10Z</DateUtc></FrequencyChange></FrequencyChanges></Clock>\n	Assim_main_chinese_500ms-401-1	60.017	1.0.0.76	1	-1368837126	Professional	2.0.10.353	2.0.10.353	05-17-2018	17-May-18 6:51:10 AM	16:51:10	2.0.10.248	4				Thai_F1_mii45-1	1		0	-1	163987	2999		0	0	1		0	100	162488	1499		0	0	10	1	4	0	4	0	-1	166986	0	7	1706	168692	pracproc	praclist	F1	mii	1	45	1		0	24	168719	0		0	0																																																																							
Assim_main_chinese_500ms	401	1	<?xml version="1.0"?>\n<Clock xmlns:dt="urn:schemas-microsoft-com:datatypes"><Description dt:dt="string">E-Prime Primary Realtime Clock</Description><StartTime><Timestamp dt:dt="int">0</Timestamp><DateUtc dt:dt="string">2018-05-17T06:51:10Z</DateUtc></StartTime><FrequencyChanges><FrequencyChange><Frequency dt:dt="r8">2742441</Frequency><Timestamp dt:dt="r8">71645429962</Timestamp><Current dt:dt="r8">0</Current><DateUtc dt:dt="string">2018-05-17T06:51:10Z</DateUtc></FrequencyChange></FrequencyChanges></Clock>\n	Assim_main_chinese_500ms-401-1	60.017	1.0.0.76	1	-1368837126	Professional	2.0.10.353	2.0.10.353	05-17-2018	17-May-18 6:51:10 AM	16:51:10	2.0.10.248	5				Thai_F1_mii315-2	0		0	0	171302	0	j	1897	173199	1		0	83	169802	1500		0	0	8	1	5	0	4	0	19	173218	0	7	1920	175138	pracproc	praclist	F1	mii	2	315	1		0	25	175167	0		0	0																																																																							
Assim_main_chinese_500ms	401	1	<?xml version="1.0"?>\n<Clock xmlns:dt="urn:schemas-microsoft-com:datatypes"><Description dt:dt="string">E-Prime Primary Realtime Clock</Description><StartTime><Timestamp dt:dt="int">0</Timestamp><DateUtc dt:dt="string">2018-05-17T06:51:10Z</DateUtc></StartTime><FrequencyChanges><FrequencyChange><Frequency dt:dt="r8">2742441</Frequency><Timestamp dt:dt="r8">71645429962</Timestamp><Current dt:dt="r8">0</Current><DateUtc dt:dt="string">2018-05-17T06:51:10Z</DateUtc></FrequencyChange></FrequencyChanges></Clock>\n	Assim_main_chinese_500ms-401-1	60.017	1.0.0.76	1	-1368837126	Professional	2.0.10.353	2.0.10.353	05-17-2018	17-May-18 6:51:10 AM	16:51:10	2.0.10.248	6				Thai_F1_maa21-1	0		0	0	177750	0	f	1052	178802	1		0	83	176250	1500		0	0	1	1	6	0	4	0	13	178816	0	7	1284	180100	pracproc	praclist	F1	maa	1	21	1		0	14	180116	0		0	0																																																																							
Assim_main_chinese_500ms	401	1	<?xml version="1.0"?>\n<Clock xmlns:dt="urn:schemas-microsoft-com:datatypes"><Description dt:dt="string">E-Prime Primary Realtime Clock</Description><StartTime><Timestamp dt:dt="int">0</Timestamp><DateUtc dt:dt="string">2018-05-17T06:51:10Z</DateUtc></StartTime><FrequencyChanges><FrequencyChange><Frequency dt:dt="r8">2742441</Frequency><Timestamp dt:dt="r8">71645429962</Timestamp><Current dt:dt="r8">0</Current><DateUtc dt:dt="string">2018-05-17T06:51:10Z</DateUtc></FrequencyChange></FrequencyChanges></Clock>\n	Assim_main_chinese_500ms-401-1	60.017	1.0.0.76	1	-1368837126	Professional	2.0.10.353	2.0.10.353	05-17-2018	17-May-18 6:51:10 AM	16:51:10	2.0.10.248	7				Thai_F1_maa241-1	1		0	-1	182698	3000		0	0	1		0	83	181199	1499		0	0	2	1	7	0	4	0	0	185698	0	7	1469	187167	pracproc	praclist	F1	maa	1	241	1		0	28	187197	0		0	0																																																																							
Assim_main_chinese_500ms	401	1	<?xml version="1.0"?>\n<Clock xmlns:dt="urn:schemas-microsoft-com:datatypes"><Description dt:dt="string">E-Prime Primary Realtime Clock</Description><StartTime><Timestamp dt:dt="int">0</Timestamp><DateUtc dt:dt="string">2018-05-17T06:51:10Z</DateUtc></StartTime><FrequencyChanges><FrequencyChange><Frequency dt:dt="r8">2742441</Frequency><Timestamp dt:dt="r8">71645429962</Timestamp><Current dt:dt="r8">0</Current><DateUtc dt:dt="string">2018-05-17T06:51:10Z</DateUtc></FrequencyChange></FrequencyChanges></Clock>\n	Assim_main_chinese_500ms-401-1	60.017	1.0.0.76	1	-1368837126	Professional	2.0.10.353	2.0.10.353	05-17-2018	17-May-18 6:51:10 AM	16:51:10	2.0.10.248	8				Thai_F1_maa45-3	1		0	0	189780	2999		0	0	1		0	83	188280	1500		0	0	5	1	8	0	4	0	-1	192779	0	7	984	193763	pracproc	praclist	F1	maa	3	45	1		0	16	193779	0		0	0																																																																							
Assim_main_chinese_500ms	401	1	<?xml version="1.0"?>\n<Clock xmlns:dt="urn:schemas-microsoft-com:datatypes"><Description dt:dt="string">E-Prime Primary Realtime Clock</Description><StartTime><Timestamp dt:dt="int">0</Timestamp><DateUtc dt:dt="string">2018-05-17T06:51:10Z</DateUtc></StartTime><FrequencyChanges><FrequencyChange><Frequency dt:dt="r8">2742441</Frequency><Timestamp dt:dt="r8">71645429962</Timestamp><Current dt:dt="r8">0</Current><DateUtc dt:dt="string">2018-05-17T06:51:10Z</DateUtc></FrequencyChange></FrequencyChanges></Clock>\n	Assim_main_chinese_500ms-401-1	60.017	1.0.0.76	1	-1368837126	Professional	2.0.10.353	2.0.10.353	05-17-2018	17-May-18 6:51:10 AM	16:51:10	2.0.10.248	9				Thai_F1_mii33-2	0		0	-1	196361	0	f	381	196742	1		0	83	194862	1499		0	0	9	1	9	0	4	0	19	196761	0	7	1639	198400	pracproc	praclist	F1	mii	2	33	1		0	23	198427	0		0	0																																																																							
Assim_main_chinese_500ms	401	1	<?xml version="1.0"?>\n<Clock xmlns:dt="urn:schemas-microsoft-com:datatypes"><Description dt:dt="string">E-Prime Primary Realtime Clock</Description><StartTime><Timestamp dt:dt="int">0</Timestamp><DateUtc dt:dt="string">2018-05-17T06:51:10Z</DateUtc></StartTime><FrequencyChanges><FrequencyChange><Frequency dt:dt="r8">2742441</Frequency><Timestamp dt:dt="r8">71645429962</Timestamp><Current dt:dt="r8">0</Current><DateUtc dt:dt="string">2018-05-17T06:51:10Z</DateUtc></FrequencyChange></FrequencyChanges></Clock>\n	Assim_main_chinese_500ms-401-1	60.017	1.0.0.76	1	-1368837126	Professional	2.0.10.353	2.0.10.353	05-17-2018	17-May-18 6:51:10 AM	16:51:10	2.0.10.248	10				Thai_F1_mii21-1	1		0	0	201010	2999		0	0	1		0	83	199510	1500		0	0	6	1	10	0	4	0	-1	204009	0	7	2889	206898	pracproc	praclist	F1	mii	1	21	1		0	26	206925	0		0	0																																																																							
Assim_main_chinese_500ms	401	1	<?xml version="1.0"?>\n<Clock xmlns:dt="urn:schemas-microsoft-com:datatypes"><Description dt:dt="string">E-Prime Primary Realtime Clock</Description><StartTime><Timestamp dt:dt="int">0</Timestamp><DateUtc dt:dt="string">2018-05-17T06:51:10Z</DateUtc></StartTime><FrequencyChanges><FrequencyChange><Frequency dt:dt="r8">2742441</Frequency><Timestamp dt:dt="r8">71645429962</Timestamp><Current dt:dt="r8">0</Current><DateUtc dt:dt="string">2018-05-17T06:51:10Z</DateUtc></FrequencyChange></FrequencyChanges></Clock>\n	Assim_main_chinese_500ms-401-1	60.017	1.0.0.76	1	-1368837126	Professional	2.0.10.353	2.0.10.353	05-17-2018	17-May-18 6:51:10 AM	16:51:10	2.0.10.248	11	6	1	1																																block6	explist														1																						19	1	1				1		1	93	348584	1500		0	0	0	4	0	11	350767	0	7	2669	353436	1		0	13	353450	0		0	0	Thai_F4_mii33-6	0		0	0	350084	0	f	672	350756	exproc	block6list	F4	mii	6	33
Assim_main_chinese_500ms	401	1	<?xml version="1.0"?>\n<Clock xmlns:dt="urn:schemas-microsoft-com:datatypes"><Description dt:dt="string">E-Prime Primary Realtime Clock</Description><StartTime><Timestamp dt:dt="int">0</Timestamp><DateUtc dt:dt="string">2018-05-17T06:51:10Z</DateUtc></StartTime><FrequencyChanges><FrequencyChange><Frequency dt:dt="r8">2742441</Frequency><Timestamp dt:dt="r8">71645429962</Timestamp><Current dt:dt="r8">0</Current><DateUtc dt:dt="string">2018-05-17T06:51:10Z</DateUtc></FrequencyChange></FrequencyChanges></Clock>\n	Assim_main_chinese_500ms-401-1	60.017	1.0.0.76	1	-1368837126	Professional	2.0.10.353	2.0.10.353	05-17-2018	17-May-18 6:51:10 AM	16:51:10	2.0.10.248	11	6	1	1																																block6	explist														2																						3	1	2				1		0	99	354549	1500		0	0	0	4	0	18	358898	0	6	3614	362512	1		0	17	362530	0		0	0	Thai_F2_mii315-1	0		0	0	356049	0	j	2831	358880	exproc	block6list	F2	mii	1	315
Assim_main_chinese_500ms	401	1	<?xml version="1.0"?>\n<Clock xmlns:dt="urn:schemas-microsoft-com:datatypes"><Description dt:dt="string">E-Prime Primary Realtime Clock</Description><StartTime><Timestamp dt:dt="int">0</Timestamp><DateUtc dt:dt="string">2018-05-17T06:51:10Z</DateUtc></StartTime><FrequencyChanges><FrequencyChange><Frequency dt:dt="r8">2742441</Frequency><Timestamp dt:dt="r8">71645429962</Timestamp><Current dt:dt="r8">0</Current><DateUtc dt:dt="string">2018-05-17T06:51:10Z</DateUtc></FrequencyChange></FrequencyChanges></Clock>\n	Assim_main_chinese_500ms-401-1	60.017	1.0.0.76	1	-1368837126	Professional	2.0.10.353	2.0.10.353	05-17-2018	17-May-18 6:51:10 AM	16:51:10	2.0.10.248	11	6	1	1																																block6	explist														3																						10	1	3				1		1	83	363613	1500		0	0	0	4	0	-1	368112	0	7	3124	371236	1		0	22	371261	0		0	0	Thai_F4_mii45-2	1		0	0	365113	2999		0	0	exproc	block6list	F4	mii	2	45
Assim_main_chinese_500ms	401	1	<?xml version="1.0"?>\n<Clock xmlns:dt="urn:schemas-microsoft-com:datatypes"><Description dt:dt="string">E-Prime Primary Realtime Clock</Description><StartTime><Timestamp dt:dt="int">0</Timestamp><DateUtc dt:dt="string">2018-05-17T06:51:10Z</DateUtc></StartTime><FrequencyChanges><FrequencyChange><Frequency dt:dt="r8">2742441</Frequency><Timestamp dt:dt="r8">71645429962</Timestamp><Current dt:dt="r8">0</Current><DateUtc dt:dt="string">2018-05-17T06:51:10Z</DateUtc></FrequencyChange></FrequencyChanges></Clock>\n	Assim_main_chinese_500ms-401-1	60.017	1.0.0.76	1	-1368837126	Professional	2.0.10.353	2.0.10.353	05-17-2018	17-May-18 6:51:10 AM	16:51:10	2.0.10.248	11	6	1	1																																block6	explist														4																						11	1	4				1		0	83	372344	1500		0	0	0	4	0	-1	376843	0	7	2357	379200	1		0	24	379226	0		0	0	Thai_F2_mii21-5	1		0	0	373844	2999		0	0	exproc	block6list	F2	mii	5	21
Assim_main_chinese_500ms	401	1	<?xml version="1.0"?>\n<Clock xmlns:dt="urn:schemas-microsoft-com:datatypes"><Description dt:dt="string">E-Prime Primary Realtime Clock</Description><StartTime><Timestamp dt:dt="int">0</Timestamp><DateUtc dt:dt="string">2018-05-17T06:51:10Z</DateUtc></StartTime><FrequencyChanges><FrequencyChange><Frequency dt:dt="r8">2742441</Frequency><Timestamp dt:dt="r8">71645429962</Timestamp><Current dt:dt="r8">0</Current><DateUtc dt:dt="string">2018-05-17T06:51:10Z</DateUtc></FrequencyChange></FrequencyChanges></Clock>\n	Assim_main_chinese_500ms-401-1	60.017	1.0.0.76	1	-1368837126	Professional	2.0.10.353	2.0.10.353	05-17-2018	17-May-18 6:51:10 AM	16:51:10	2.0.10.248	11	6	1	1																																block6	explist														5																						4	1	5				1		0	99	380325	1500		0	0	0	4	0	9	382875	0	7	1659	384534	1		0	22	384557	0		0	0	Thai_F2_mii33-3	0		0	0	381825	0	f	1041	382866	exproc	block6list	F2	mii	3	33
Assim_main_chinese_500ms	401	1	<?xml version="1.0"?>\n<Clock xmlns:dt="urn:schemas-microsoft-com:datatypes"><Description dt:dt="string">E-Prime Primary Realtime Clock</Description><StartTime><Timestamp dt:dt="int">0</Timestamp><DateUtc dt:dt="string">2018-05-17T06:51:10Z</DateUtc></StartTime><FrequencyChanges><FrequencyChange><Frequency dt:dt="r8">2742441</Frequency><Timestamp dt:dt="r8">71645429962</Timestamp><Current dt:dt="r8">0</Current><DateUtc dt:dt="string">2018-05-17T06:51:10Z</DateUtc></FrequencyChange></FrequencyChanges></Clock>\n	Assim_main_chinese_500ms-401-1	60.017	1.0.0.76	1	-1368837126	Professional	2.0.10.353	2.0.10.353	05-17-2018	17-May-18 6:51:10 AM	16:51:10	2.0.10.248	11	6	1	1																																block6	explist														6																						7	1	6				1		0	100	385657	1500		0	0	0	4	0	-1	390156	0	3	2333	392489	1		0	14	392505	0		0	0	Thai_F4_mii241-2	1		0	0	387157	2999		0	0	exproc	block6list	F4	mii	2	241
Assim_main_chinese_500ms	401	1	<?xml version="1.0"?>\n<Clock xmlns:dt="urn:schemas-microsoft-com:datatypes"><Description dt:dt="string">E-Prime Primary Realtime Clock</Description><StartTime><Timestamp dt:dt="int">0</Timestamp><DateUtc dt:dt="string">2018-05-17T06:51:10Z</DateUtc></StartTime><FrequencyChanges><FrequencyChange><Frequency dt:dt="r8">2742441</Frequency><Timestamp dt:dt="r8">71645429962</Timestamp><Current dt:dt="r8">0</Current><DateUtc dt:dt="string">2018-05-17T06:51:10Z</DateUtc></FrequencyChange></FrequencyChanges></Clock>\n	Assim_main_chinese_500ms-401-1	60.017	1.0.0.76	1	-1368837126	Professional	2.0.10.353	2.0.10.353	05-17-2018	17-May-18 6:51:10 AM	16:51:10	2.0.10.248	11	6	1	1																																block6	explist														7																						8	1	7				1		0	100	393605	1499		0	0	0	4	0	21	395488	0	5	2083	397571	1		0	16	397587	0		0	0	Thai_F4_mii315-4	0		0	-1	395104	0	j	363	395467	exproc	block6list	F4	mii	4	315
Assim_main_chinese_500ms	401	1	<?xml version="1.0"?>\n<Clock xmlns:dt="urn:schemas-microsoft-com:datatypes"><Description dt:dt="string">E-Prime Primary Realtime Clock</Description><StartTime><Timestamp dt:dt="int">0</Timestamp><DateUtc dt:dt="string">2018-05-17T06:51:10Z</DateUtc></StartTime><FrequencyChanges><FrequencyChange><Frequency dt:dt="r8">2742441</Frequency><Timestamp dt:dt="r8">71645429962</Timestamp><Current dt:dt="r8">0</Current><DateUtc dt:dt="string">2018-05-17T06:51:10Z</DateUtc></FrequencyChange></FrequencyChanges></Clock>\n	Assim_main_chinese_500ms-401-1	60.017	1.0.0.76	1	-1368837126	Professional	2.0.10.353	2.0.10.353	05-17-2018	17-May-18 6:51:10 AM	16:51:10	2.0.10.248	11	6	1	1																																block6	explist														8																						16	1	8				1		0	116	398703	1500		0	0	0	4	0	16	401453	0	1	1105	402558	1		0	11	402569	0		0	0	Thai_F4_mii21-6	0		0	0	400203	0	f	1234	401437	exproc	block6list	F4	mii	6	21
Assim_main_chinese_500ms	401	1	<?xml version="1.0"?>\n<Clock xmlns:dt="urn:schemas-microsoft-com:datatypes"><Description dt:dt="string">E-Prime Primary Realtime Clock</Description><StartTime><Timestamp dt:dt="int">0</Timestamp><DateUtc dt:dt="string">2018-05-17T06:51:10Z</DateUtc></StartTime><FrequencyChanges><FrequencyChange><Frequency dt:dt="r8">2742441</Frequency><Timestamp dt:dt="r8">71645429962</Timestamp><Current dt:dt="r8">0</Current><DateUtc dt:dt="string">2018-05-17T06:51:10Z</DateUtc></FrequencyChange></FrequencyChanges></Clock>\n	Assim_main_chinese_500ms-401-1	60.017	1.0.0.76	1	-1368837126	Professional	2.0.10.353	2.0.10.353	05-17-2018	17-May-18 6:51:10 AM	16:51:10	2.0.10.248	11	6	1	1																																block6	explist														9																						17	1	9				1		0	83	403652	1500		0	0	0	4	0	-1	408151	0	7	1859	410010	1		0	20	410033	0		0	0	Thai_F4_mii241-5	1		0	0	405152	2999		0	0	exproc	block6list	F4	mii	5	241
Assim_main_chinese_500ms	401	1	<?xml version="1.0"?>\n<Clock xmlns:dt="urn:schemas-microsoft-com:datatypes"><Description dt:dt="string">E-Prime Primary Realtime Clock</Description><StartTime><Timestamp dt:dt="int">0</Timestamp><DateUtc dt:dt="string">2018-05-17T06:51:10Z</DateUtc></StartTime><FrequencyChanges><FrequencyChange><Frequency dt:dt="r8">2742441</Frequency><Timestamp dt:dt="r8">71645429962</Timestamp><Current dt:dt="r8">0</Current><DateUtc dt:dt="string">2018-05-17T06:51:10Z</DateUtc></FrequencyChange></FrequencyChanges></Clock>\n	Assim_main_chinese_500ms-401-1	60.017	1.0.0.76	1	-1368837126	Professional	2.0.10.353	2.0.10.353	05-17-2018	17-May-18 6:51:10 AM	16:51:10	2.0.10.248	11	6	1	1																																block6	explist														10																						15	1	10				1		0	117	411150	1499		0	0	0	4	0	12	412983	0	6	2197	415180	1		0	16	415199	0		0	0	Thai_F2_mii45-3	0		0	-1	412649	0	j	322	412971	exproc	block6list	F2	mii	3	45
Assim_main_chinese_500ms	401	1	<?xml version="1.0"?>\n<Clock xmlns:dt="urn:schemas-microsoft-com:datatypes"><Description dt:dt="string">E-Prime Primary Realtime Clock</Description><StartTime><Timestamp dt:dt="int">0</Timestamp><DateUtc dt:dt="string">2018-05-17T06:51:10Z</DateUtc></StartTime><FrequencyChanges><FrequencyChange><Frequency dt:dt="r8">2742441</Frequency><Timestamp dt:dt="r8">71645429962</Timestamp><Current dt:dt="r8">0</Current><DateUtc dt:dt="string">2018-05-17T06:51:10Z</DateUtc></FrequencyChange></FrequencyChanges></Clock>\n	Assim_main_chinese_500ms-401-1	60.017	1.0.0.76	1	-1368837126	Professional	2.0.10.353	2.0.10.353	05-17-2018	17-May-18 6:51:10 AM	16:51:10	2.0.10.248	11	6	1	1																																block6	explist														11																						12	1	11				0		0	83	416282	1499	f	1323	417605	0	4	0	-1	420780	0	5	2690	423470	1		0	23	423496	0		0	0	Thai_F2_mii241-3	1		0	-1	417781	2999		0	0	exproc	block6list	F2	mii	3	241
Assim_main_chinese_500ms	401	1	<?xml version="1.0"?>\n<Clock xmlns:dt="urn:schemas-microsoft-com:datatypes"><Description dt:dt="string">E-Prime Primary Realtime Clock</Description><StartTime><Timestamp dt:dt="int">0</Timestamp><DateUtc dt:dt="string">2018-05-17T06:51:10Z</DateUtc></StartTime><FrequencyChanges><FrequencyChange><Frequency dt:dt="r8">2742441</Frequency><Timestamp dt:dt="r8">71645429962</Timestamp><Current dt:dt="r8">0</Current><DateUtc dt:dt="string">2018-05-17T06:51:10Z</DateUtc></FrequencyChange></FrequencyChanges></Clock>\n	Assim_main_chinese_500ms-401-1	60.017	1.0.0.76	1	-1368837126	Professional	2.0.10.353	2.0.10.353	05-17-2018	17-May-18 6:51:10 AM	16:51:10	2.0.10.248	11	6	1	1																																block6	explist														12																						20	1	12				1		0	100	424596	1500		0	0	0	4	0	7	426212	0	5	1750	427962	1		0	15	427978	0		0	0	Thai_F4_mii45-3	0		0	0	426096	0	j	109	426205	exproc	block6list	F4	mii	3	45
Assim_main_chinese_500ms	401	1	<?xml version="1.0"?>\n<Clock xmlns:dt="urn:schemas-microsoft-com:datatypes"><Description dt:dt="string">E-Prime Primary Realtime Clock</Description><StartTime><Timestamp dt:dt="int">0</Timestamp><DateUtc dt:dt="string">2018-05-17T06:51:10Z</DateUtc></StartTime><FrequencyChanges><FrequencyChange><Frequency dt:dt="r8">2742441</Frequency><Timestamp dt:dt="r8">71645429962</Timestamp><Current dt:dt="r8">0</Current><DateUtc dt:dt="string">2018-05-17T06:51:10Z</DateUtc></FrequencyChange></FrequencyChanges></Clock>\n	Assim_main_chinese_500ms-401-1	60.017	1.0.0.76	1	-1368837126	Professional	2.0.10.353	2.0.10.353	05-17-2018	17-May-18 6:51:10 AM	16:51:10	2.0.10.248	11	6	1	1																																block6	explist														13																						2	1	13				0		0	83	429061	1500	f	1327	430388	0	4	0	-1	433560	0	5	989	434549	1		0	24	434576	0		0	0	Thai_F2_mii241-2	1		0	0	430561	2999		0	0	exproc	block6list	F2	mii	2	241
Assim_main_chinese_500ms	401	1	<?xml version="1.0"?>\n<Clock xmlns:dt="urn:schemas-microsoft-com:datatypes"><Description dt:dt="string">E-Prime Primary Realtime Clock</Description><StartTime><Timestamp dt:dt="int">0</Timestamp><DateUtc dt:dt="string">2018-05-17T06:51:10Z</DateUtc></StartTime><FrequencyChanges><FrequencyChange><Frequency dt:dt="r8">2742441</Frequency><Timestamp dt:dt="r8">71645429962</Timestamp><Current dt:dt="r8">0</Current><DateUtc dt:dt="string">2018-05-17T06:51:10Z</DateUtc></FrequencyChange></FrequencyChanges></Clock>\n	Assim_main_chinese_500ms-401-1	60.017	1.0.0.76	1	-1368837126	Professional	2.0.10.353	2.0.10.353	05-17-2018	17-May-18 6:51:10 AM	16:51:10	2.0.10.248	11	6	1	1																																block6	explist														14																						6	1	14				1		1	83	435659	1500		0	0	0	4	0	-1	440158	0	3	2912	443070	1		0	20	443091	0		0	0	Thai_F4_mii21-2	1		0	0	437159	2999		0	0	exproc	block6list	F4	mii	2	21
Assim_main_chinese_500ms	401	1	<?xml version="1.0"?>\n<Clock xmlns:dt="urn:schemas-microsoft-com:datatypes"><Description dt:dt="string">E-Prime Primary Realtime Clock</Description><StartTime><Timestamp dt:dt="int">0</Timestamp><DateUtc dt:dt="string">2018-05-17T06:51:10Z</DateUtc></StartTime><FrequencyChanges><FrequencyChange><Frequency dt:dt="r8">2742441</Frequency><Timestamp dt:dt="r8">71645429962</Timestamp><Current dt:dt="r8">0</Current><DateUtc dt:dt="string">2018-05-17T06:51:10Z</DateUtc></FrequencyChange></FrequencyChanges></Clock>\n	Assim_main_chinese_500ms-401-1	60.017	1.0.0.76	1	-1368837126	Professional	2.0.10.353	2.0.10.353	05-17-2018	17-May-18 6:51:10 AM	16:51:10	2.0.10.248	11	6	1	1																																block6	explist														15																						9	1	15				1		0	83	444174	1499		0	0	1	4	0	17	445840	0	4	2306	448146	1		0	26	448173	0		0	0	Thai_F4_mii33-5	0		0	-1	445673	0	f	150	445823	exproc	block6list	F4	mii	5	33
Assim_main_chinese_500ms	401	1	<?xml version="1.0"?>\n<Clock xmlns:dt="urn:schemas-microsoft-com:datatypes"><Description dt:dt="string">E-Prime Primary Realtime Clock</Description><StartTime><Timestamp dt:dt="int">0</Timestamp><DateUtc dt:dt="string">2018-05-17T06:51:10Z</DateUtc></StartTime><FrequencyChanges><FrequencyChange><Frequency dt:dt="r8">2742441</Frequency><Timestamp dt:dt="r8">71645429962</Timestamp><Current dt:dt="r8">0</Current><DateUtc dt:dt="string">2018-05-17T06:51:10Z</DateUtc></FrequencyChange></FrequencyChanges></Clock>\n	Assim_main_chinese_500ms-401-1	60.017	1.0.0.76	1	-1368837126	Professional	2.0.10.353	2.0.10.353	05-17-2018	17-May-18 6:51:10 AM	16:51:10	2.0.10.248	11	6	1	1																																block6	explist														16																						13	1	16				0		0	116	449289	1500	j	1405	450694	0	4	0	14	452921	0	5	2091	455012	1		0	21	455037	0		0	0	Thai_F2_mii315-5	0		0	0	450789	0	j	2118	452907	exproc	block6list	F2	mii	5	315
Assim_main_chinese_500ms	401	1	<?xml version="1.0"?>\n<Clock xmlns:dt="urn:schemas-microsoft-com:datatypes"><Description dt:dt="string">E-Prime Primary Realtime Clock</Description><StartTime><Timestamp dt:dt="int">0</Timestamp><DateUtc dt:dt="string">2018-05-17T06:51:10Z</DateUtc></StartTime><FrequencyChanges><FrequencyChange><Frequency dt:dt="r8">2742441</Frequency><Timestamp dt:dt="r8">71645429962</Timestamp><Current dt:dt="r8">0</Current><DateUtc dt:dt="string">2018-05-17T06:51:10Z</DateUtc></FrequencyChange></FrequencyChanges></Clock>\n	Assim_main_chinese_500ms-401-1	60.017	1.0.0.76	1	-1368837126	Professional	2.0.10.353	2.0.10.353	05-17-2018	17-May-18 6:51:10 AM	16:51:10	2.0.10.248	11	6	1	1																																block6	explist														17																						14	1	17				1		0	100	456137	1500		0	0	0	4	0	10	457853	0	1	1666	459519	1		0	16	459536	0		0	0	Thai_F2_mii33-5	0		0	0	457637	0	f	206	457843	exproc	block6list	F2	mii	5	33
Assim_main_chinese_500ms	401	1	<?xml version="1.0"?>\n<Clock xmlns:dt="urn:schemas-microsoft-com:datatypes"><Description dt:dt="string">E-Prime Primary Realtime Clock</Description><StartTime><Timestamp dt:dt="int">0</Timestamp><DateUtc dt:dt="string">2018-05-17T06:51:10Z</DateUtc></StartTime><FrequencyChanges><FrequencyChange><Frequency dt:dt="r8">2742441</Frequency><Timestamp dt:dt="r8">71645429962</Timestamp><Current dt:dt="r8">0</Current><DateUtc dt:dt="string">2018-05-17T06:51:10Z</DateUtc></FrequencyChange></FrequencyChanges></Clock>\n	Assim_main_chinese_500ms-401-1	60.017	1.0.0.76	1	-1368837126	Professional	2.0.10.353	2.0.10.353	05-17-2018	17-May-18 6:51:10 AM	16:51:10	2.0.10.248	11	6	1	1																																block6	explist														18																						18	1	18				0		0	83	460619	1500	j	1375	461994	0	4	0	-1	465118	0	5	2522	467640	1		0	23	467667	0		0	0	Thai_F4_mii315-6	1		0	0	462119	2999		0	0	exproc	block6list	F4	mii	6	315
Assim_main_chinese_500ms	401	1	<?xml version="1.0"?>\n<Clock xmlns:dt="urn:schemas-microsoft-com:datatypes"><Description dt:dt="string">E-Prime Primary Realtime Clock</Description><StartTime><Timestamp dt:dt="int">0</Timestamp><DateUtc dt:dt="string">2018-05-17T06:51:10Z</DateUtc></StartTime><FrequencyChanges><FrequencyChange><Frequency dt:dt="r8">2742441</Frequency><Timestamp dt:dt="r8">71645429962</Timestamp><Current dt:dt="r8">0</Current><DateUtc dt:dt="string">2018-05-17T06:51:10Z</DateUtc></FrequencyChange></FrequencyChanges></Clock>\n	Assim_main_chinese_500ms-401-1	60.017	1.0.0.76	1	-1368837126	Professional	2.0.10.353	2.0.10.353	05-17-2018	17-May-18 6:51:10 AM	16:51:10	2.0.10.248	11	6	1	1																																block6	explist														19																						1	1	19				1		0	100	468767	1499		0	0	0	4	0	15	470333	0	1	1171	471504	1		0	28	471533	0		0	0	Thai_F2_mii21-2	0		0	-1	470266	0	f	52	470318	exproc	block6list	F2	mii	2	21
Assim_main_chinese_500ms	401	1	<?xml version="1.0"?>\n<Clock xmlns:dt="urn:schemas-microsoft-com:datatypes"><Description dt:dt="string">E-Prime Primary Realtime Clock</Description><StartTime><Timestamp dt:dt="int">0</Timestamp><DateUtc dt:dt="string">2018-05-17T06:51:10Z</DateUtc></StartTime><FrequencyChanges><FrequencyChange><Frequency dt:dt="r8">2742441</Frequency><Timestamp dt:dt="r8">71645429962</Timestamp><Current dt:dt="r8">0</Current><DateUtc dt:dt="string">2018-05-17T06:51:10Z</DateUtc></FrequencyChange></FrequencyChanges></Clock>\n	Assim_main_chinese_500ms-401-1	60.017	1.0.0.76	1	-1368837126	Professional	2.0.10.353	2.0.10.353	05-17-2018	17-May-18 6:51:10 AM	16:51:10	2.0.10.248	11	6	1	1																																block6	explist														20																						5	1	20				1		0	99	472632	1500		0	0	1	4	0	-1	477131	0	4	2364	479495	1		0	15	479514	0		0	0	Thai_F2_mii45-2	1		0	0	474132	2999		0	0	exproc	block6list	F2	mii	2	45
Assim_main_chinese_500ms	401	1	<?xml version="1.0"?>\n<Clock xmlns:dt="urn:schemas-microsoft-com:datatypes"><Description dt:dt="string">E-Prime Primary Realtime Clock</Description><StartTime><Timestamp dt:dt="int">0</Timestamp><DateUtc dt:dt="string">2018-05-17T06:51:10Z</DateUtc></StartTime><FrequencyChanges><FrequencyChange><Frequency dt:dt="r8">2742441</Frequency><Timestamp dt:dt="r8">71645429962</Timestamp><Current dt:dt="r8">0</Current><DateUtc dt:dt="string">2018-05-17T06:51:10Z</DateUtc></FrequencyChange></FrequencyChanges></Clock>\n	Assim_main_chinese_500ms-401-1	60.017	1.0.0.76	1	-1368837126	Professional	2.0.10.353	2.0.10.353	05-17-2018	17-May-18 6:51:10 AM	16:51:10	2.0.10.248	12	5	1	2																																block5	explist														1																			20	1	1							1		0	93	521185	1500		0	0	0	4	0	19	524717	0	5	3566	528283	1		0	16	528300	0		0	0	Thai_F4_maa45-4	0		0	0	522685	0	j	2013	524698	exproc	block5list	F4	maa	4	45
Assim_main_chinese_500ms	401	1	<?xml version="1.0"?>\n<Clock xmlns:dt="urn:schemas-microsoft-com:datatypes"><Description dt:dt="string">E-Prime Primary Realtime Clock</Description><StartTime><Timestamp dt:dt="int">0</Timestamp><DateUtc dt:dt="string">2018-05-17T06:51:10Z</DateUtc></StartTime><FrequencyChanges><FrequencyChange><Frequency dt:dt="r8">2742441</Frequency><Timestamp dt:dt="r8">71645429962</Timestamp><Current dt:dt="r8">0</Current><DateUtc dt:dt="string">2018-05-17T06:51:10Z</DateUtc></FrequencyChange></FrequencyChanges></Clock>\n	Assim_main_chinese_500ms-401-1	60.017	1.0.0.76	1	-1368837126	Professional	2.0.10.353	2.0.10.353	05-17-2018	17-May-18 6:51:10 AM	16:51:10	2.0.10.248	12	5	1	2																																block5	explist														2																			19	1	2							1		0	99	529399	1500		0	0	0	4	0	10	531016	0	5	3081	534097	1		0	17	534115	0		0	0	Thai_F4_maa33-5	0		0	0	530899	0	f	107	531006	exproc	block5list	F4	maa	5	33
Assim_main_chinese_500ms	401	1	<?xml version="1.0"?>\n<Clock xmlns:dt="urn:schemas-microsoft-com:datatypes"><Description dt:dt="string">E-Prime Primary Realtime Clock</Description><StartTime><Timestamp dt:dt="int">0</Timestamp><DateUtc dt:dt="string">2018-05-17T06:51:10Z</DateUtc></StartTime><FrequencyChanges><FrequencyChange><Frequency dt:dt="r8">2742441</Frequency><Timestamp dt:dt="r8">71645429962</Timestamp><Current dt:dt="r8">0</Current><DateUtc dt:dt="string">2018-05-17T06:51:10Z</DateUtc></FrequencyChange></FrequencyChanges></Clock>\n	Assim_main_chinese_500ms-401-1	60.017	1.0.0.76	1	-1368837126	Professional	2.0.10.353	2.0.10.353	05-17-2018	17-May-18 6:51:10 AM	16:51:10	2.0.10.248	12	5	1	2																																block5	explist														3																			15	1	3							1		0	99	535214	1500		0	0	0	4	0	-1	539713	0	5	3285	542998	1		0	30	543029	0		0	0	Thai_F2_maa45-2	1		0	0	536714	2999		0	0	exproc	block5list	F2	maa	2	45
Assim_main_chinese_500ms	401	1	<?xml version="1.0"?>\n<Clock xmlns:dt="urn:schemas-microsoft-com:datatypes"><Description dt:dt="string">E-Prime Primary Realtime Clock</Description><StartTime><Timestamp dt:dt="int">0</Timestamp><DateUtc dt:dt="string">2018-05-17T06:51:10Z</DateUtc></StartTime><FrequencyChanges><FrequencyChange><Frequency dt:dt="r8">2742441</Frequency><Timestamp dt:dt="r8">71645429962</Timestamp><Current dt:dt="r8">0</Current><DateUtc dt:dt="string">2018-05-17T06:51:10Z</DateUtc></FrequencyChange></FrequencyChanges></Clock>\n	Assim_main_chinese_500ms-401-1	60.017	1.0.0.76	1	-1368837126	Professional	2.0.10.353	2.0.10.353	05-17-2018	17-May-18 6:51:10 AM	16:51:10	2.0.10.248	12	5	1	2																																block5	explist														4																			16	1	4							1		1	99	544128	1500		0	0	0	4	0	18	546345	0	1	2846	549191	1		0	15	549210	0		0	0	Thai_F4_maa21-4	0		0	0	545628	0	f	699	546327	exproc	block5list	F4	maa	4	21
Assim_main_chinese_500ms	401	1	<?xml version="1.0"?>\n<Clock xmlns:dt="urn:schemas-microsoft-com:datatypes"><Description dt:dt="string">E-Prime Primary Realtime Clock</Description><StartTime><Timestamp dt:dt="int">0</Timestamp><DateUtc dt:dt="string">2018-05-17T06:51:10Z</DateUtc></StartTime><FrequencyChanges><FrequencyChange><Frequency dt:dt="r8">2742441</Frequency><Timestamp dt:dt="r8">71645429962</Timestamp><Current dt:dt="r8">0</Current><DateUtc dt:dt="string">2018-05-17T06:51:10Z</DateUtc></FrequencyChange></FrequencyChanges></Clock>\n	Assim_main_chinese_500ms-401-1	60.017	1.0.0.76	1	-1368837126	Professional	2.0.10.353	2.0.10.353	05-17-2018	17-May-18 6:51:10 AM	16:51:10	2.0.10.248	12	5	1	2																																block5	explist														5																			9	1	5							1		0	83	550293	1500		0	0	0	4	0	21	553209	0	7	1842	555051	1		0	23	555075	0		0	0	Thai_F4_maa33-1	0		0	0	551793	0	f	1395	553188	exproc	block5list	F4	maa	1	33
Assim_main_chinese_500ms	401	1	<?xml version="1.0"?>\n<Clock xmlns:dt="urn:schemas-microsoft-com:datatypes"><Description dt:dt="string">E-Prime Primary Realtime Clock</Description><StartTime><Timestamp dt:dt="int">0</Timestamp><DateUtc dt:dt="string">2018-05-17T06:51:10Z</DateUtc></StartTime><FrequencyChanges><FrequencyChange><Frequency dt:dt="r8">2742441</Frequency><Timestamp dt:dt="r8">71645429962</Timestamp><Current dt:dt="r8">0</Current><DateUtc dt:dt="string">2018-05-17T06:51:10Z</DateUtc></FrequencyChange></FrequencyChanges></Clock>\n	Assim_main_chinese_500ms-401-1	60.017	1.0.0.76	1	-1368837126	Professional	2.0.10.353	2.0.10.353	05-17-2018	17-May-18 6:51:10 AM	16:51:10	2.0.10.248	12	5	1	2																																block5	explist														6																			8	1	6							1		0	83	556158	1500		0	0	0	4	0	-1	560657	0	1	1499	562156	1		0	15	562173	0		0	0	Thai_F4_maa315-5	1		0	0	557658	2999		0	0	exproc	block5list	F4	maa	5	315
Assim_main_chinese_500ms	401	1	<?xml version="1.0"?>\n<Clock xmlns:dt="urn:schemas-microsoft-com:datatypes"><Description dt:dt="string">E-Prime Primary Realtime Clock</Description><StartTime><Timestamp dt:dt="int">0</Timestamp><DateUtc dt:dt="string">2018-05-17T06:51:10Z</DateUtc></StartTime><FrequencyChanges><FrequencyChange><Frequency dt:dt="r8">2742441</Frequency><Timestamp dt:dt="r8">71645429962</Timestamp><Current dt:dt="r8">0</Current><DateUtc dt:dt="string">2018-05-17T06:51:10Z</DateUtc></FrequencyChange></FrequencyChanges></Clock>\n	Assim_main_chinese_500ms-401-1	60.017	1.0.0.76	1	-1368837126	Professional	2.0.10.353	2.0.10.353	05-17-2018	17-May-18 6:51:10 AM	16:51:10	2.0.10.248	12	5	1	2																																block5	explist														7																			14	1	7							1		0	83	563256	1500		0	0	0	4	0	-1	567755	0	6	2653	570408	1		0	11	570421	0		0	0	Thai_F2_maa33-5	1		0	0	564756	2999		0	0	exproc	block5list	F2	maa	5	33
Assim_main_chinese_500ms	401	1	<?xml version="1.0"?>\n<Clock xmlns:dt="urn:schemas-microsoft-com:datatypes"><Description dt:dt="string">E-Prime Primary Realtime Clock</Description><StartTime><Timestamp dt:dt="int">0</Timestamp><DateUtc dt:dt="string">2018-05-17T06:51:10Z</DateUtc></StartTime><FrequencyChanges><FrequencyChange><Frequency dt:dt="r8">2742441</Frequency><Timestamp dt:dt="r8">71645429962</Timestamp><Current dt:dt="r8">0</Current><DateUtc dt:dt="string">2018-05-17T06:51:10Z</DateUtc></FrequencyChange></FrequencyChanges></Clock>\n	Assim_main_chinese_500ms-401-1	60.017	1.0.0.76	1	-1368837126	Professional	2.0.10.353	2.0.10.353	05-17-2018	17-May-18 6:51:10 AM	16:51:10	2.0.10.248	12	5	1	2																																block5	explist														8																			18	1	8							1		0	100	571521	1499		0	0	0	4	0	-1	576019	0	5	3420	579439	1		0	27	579468	0		0	0	Thai_F4_maa315-6	1		0	-1	573020	2999		0	0	exproc	block5list	F4	maa	6	315
Assim_main_chinese_500ms	401	1	<?xml version="1.0"?>\n<Clock xmlns:dt="urn:schemas-microsoft-com:datatypes"><Description dt:dt="string">E-Prime Primary Realtime Clock</Description><StartTime><Timestamp dt:dt="int">0</Timestamp><DateUtc dt:dt="string">2018-05-17T06:51:10Z</DateUtc></StartTime><FrequencyChanges><FrequencyChange><Frequency dt:dt="r8">2742441</Frequency><Timestamp dt:dt="r8">71645429962</Timestamp><Current dt:dt="r8">0</Current><DateUtc dt:dt="string">2018-05-17T06:51:10Z</DateUtc></FrequencyChange></FrequencyChanges></Clock>\n	Assim_main_chinese_500ms-401-1	60.017	1.0.0.76	1	-1368837126	Professional	2.0.10.353	2.0.10.353	05-17-2018	17-May-18 6:51:10 AM	16:51:10	2.0.10.248	12	5	1	2																																block5	explist														9																			17	1	9							1		0	100	580568	1500		0	0	0	4	0	-1	585067	0	7	2142	587209	1		0	21	587233	0		0	0	Thai_F4_maa241-6	1		0	0	582068	2999		0	0	exproc	block5list	F4	maa	6	241
Assim_main_chinese_500ms	401	1	<?xml version="1.0"?>\n<Clock xmlns:dt="urn:schemas-microsoft-com:datatypes"><Description dt:dt="string">E-Prime Primary Realtime Clock</Description><StartTime><Timestamp dt:dt="int">0</Timestamp><DateUtc dt:dt="string">2018-05-17T06:51:10Z</DateUtc></StartTime><FrequencyChanges><FrequencyChange><Frequency dt:dt="r8">2742441</Frequency><Timestamp dt:dt="r8">71645429962</Timestamp><Current dt:dt="r8">0</Current><DateUtc dt:dt="string">2018-05-17T06:51:10Z</DateUtc></FrequencyChange></FrequencyChanges></Clock>\n	Assim_main_chinese_500ms-401-1	60.017	1.0.0.76	1	-1368837126	Professional	2.0.10.353	2.0.10.353	05-17-2018	17-May-18 6:51:10 AM	16:51:10	2.0.10.248	12	5	1	2																																block5	explist														10																			1	1	10							1		0	116	588349	1500		0	0	0	4	0	13	590915	0	6	1928	592843	1		0	20	592865	0		0	0	Thai_F2_maa21-1	0		0	0	589849	0	f	1053	590902	exproc	block5list	F2	maa	1	21
Assim_main_chinese_500ms	401	1	<?xml version="1.0"?>\n<Clock xmlns:dt="urn:schemas-microsoft-com:datatypes"><Description dt:dt="string">E-Prime Primary Realtime Clock</Description><StartTime><Timestamp dt:dt="int">0</Timestamp><DateUtc dt:dt="string">2018-05-17T06:51:10Z</DateUtc></StartTime><FrequencyChanges><FrequencyChange><Frequency dt:dt="r8">2742441</Frequency><Timestamp dt:dt="r8">71645429962</Timestamp><Current dt:dt="r8">0</Current><DateUtc dt:dt="string">2018-05-17T06:51:10Z</DateUtc></FrequencyChange></FrequencyChanges></Clock>\n	Assim_main_chinese_500ms-401-1	60.017	1.0.0.76	1	-1368837126	Professional	2.0.10.353	2.0.10.353	05-17-2018	17-May-18 6:51:10 AM	16:51:10	2.0.10.248	12	5	1	2																																block5	explist														11																			6	1	11							1		0	116	593981	1499		0	0	1	4	0	16	596414	0	4	2170	598584	1		0	10	598596	0		0	0	Thai_F4_maa21-1	0		1	-1	595480	0	f	918	596398	exproc	block5list	F4	maa	1	21
Assim_main_chinese_500ms	401	1	<?xml version="1.0"?>\n<Clock xmlns:dt="urn:schemas-microsoft-com:datatypes"><Description dt:dt="string">E-Prime Primary Realtime Clock</Description><StartTime><Timestamp dt:dt="int">0</Timestamp><DateUtc dt:dt="string">2018-05-17T06:51:10Z</DateUtc></StartTime><FrequencyChanges><FrequencyChange><Frequency dt:dt="r8">2742441</Frequency><Timestamp dt:dt="r8">71645429962</Timestamp><Current dt:dt="r8">0</Current><DateUtc dt:dt="string">2018-05-17T06:51:10Z</DateUtc></FrequencyChange></FrequencyChanges></Clock>\n	Assim_main_chinese_500ms-401-1	60.017	1.0.0.76	1	-1368837126	Professional	2.0.10.353	2.0.10.353	05-17-2018	17-May-18 6:51:10 AM	16:51:10	2.0.10.248	12	5	1	2																																block5	explist														12																			12	1	12							1		0	83	599679	1500		0	0	0	4	0	-1	604178	0	3	1466	605644	1		0	16	605661	0		0	0	Thai_F2_maa241-5	1		0	0	601179	2999		0	0	exproc	block5list	F2	maa	5	241
Assim_main_chinese_500ms	401	1	<?xml version="1.0"?>\n<Clock xmlns:dt="urn:schemas-microsoft-com:datatypes"><Description dt:dt="string">E-Prime Primary Realtime Clock</Description><StartTime><Timestamp dt:dt="int">0</Timestamp><DateUtc dt:dt="string">2018-05-17T06:51:10Z</DateUtc></StartTime><FrequencyChanges><FrequencyChange><Frequency dt:dt="r8">2742441</Frequency><Timestamp dt:dt="r8">71645429962</Timestamp><Current dt:dt="r8">0</Current><DateUtc dt:dt="string">2018-05-17T06:51:10Z</DateUtc></FrequencyChange></FrequencyChanges></Clock>\n	Assim_main_chinese_500ms-401-1	60.017	1.0.0.76	1	-1368837126	Professional	2.0.10.353	2.0.10.353	05-17-2018	17-May-18 6:51:10 AM	16:51:10	2.0.10.248	12	5	1	2																																block5	explist														13																			2	1	13							1		0	116	606777	1500		0	0	0	4	0	-1	611276	0	3	1464	612740	1		0	16	612759	0		0	0	Thai_F2_maa241-3	1		0	0	608277	2999		0	0	exproc	block5list	F2	maa	3	241
Assim_main_chinese_500ms	401	1	<?xml version="1.0"?>\n<Clock xmlns:dt="urn:schemas-microsoft-com:datatypes"><Description dt:dt="string">E-Prime Primary Realtime Clock</Description><StartTime><Timestamp dt:dt="int">0</Timestamp><DateUtc dt:dt="string">2018-05-17T06:51:10Z</DateUtc></StartTime><FrequencyChanges><FrequencyChange><Frequency dt:dt="r8">2742441</Frequency><Timestamp dt:dt="r8">71645429962</Timestamp><Current dt:dt="r8">0</Current><DateUtc dt:dt="string">2018-05-17T06:51:10Z</DateUtc></FrequencyChange></FrequencyChanges></Clock>\n	Assim_main_chinese_500ms-401-1	60.017	1.0.0.76	1	-1368837126	Professional	2.0.10.353	2.0.10.353	05-17-2018	17-May-18 6:51:10 AM	16:51:10	2.0.10.248	12	5	1	2																																block5	explist														14																			10	1	14							1		0	100	613859	1499		0	0	0	4	0	-1	618357	0	6	2226	620583	1		0	21	620607	0		0	0	Thai_F4_maa45-3	1		0	-1	615358	2999		0	0	exproc	block5list	F4	maa	3	45
Assim_main_chinese_500ms	401	1	<?xml version="1.0"?>\n<Clock xmlns:dt="urn:schemas-microsoft-com:datatypes"><Description dt:dt="string">E-Prime Primary Realtime Clock</Description><StartTime><Timestamp dt:dt="int">0</Timestamp><DateUtc dt:dt="string">2018-05-17T06:51:10Z</DateUtc></StartTime><FrequencyChanges><FrequencyChange><Frequency dt:dt="r8">2742441</Frequency><Timestamp dt:dt="r8">71645429962</Timestamp><Current dt:dt="r8">0</Current><DateUtc dt:dt="string">2018-05-17T06:51:10Z</DateUtc></FrequencyChange></FrequencyChanges></Clock>\n	Assim_main_chinese_500ms-401-1	60.017	1.0.0.76	1	-1368837126	Professional	2.0.10.353	2.0.10.353	05-17-2018	17-May-18 6:51:10 AM	16:51:10	2.0.10.248	12	5	1	2																																block5	explist														15																			4	1	15							1		0	83	621690	1499		0	0	0	4	0	14	623356	0	6	2273	625629	1		0	10	625639	0		0	0	Thai_F2_maa33-2	0		0	-1	623189	0	f	153	623342	exproc	block5list	F2	maa	2	33
Assim_main_chinese_500ms	401	1	<?xml version="1.0"?>\n<Clock xmlns:dt="urn:schemas-microsoft-com:datatypes"><Description dt:dt="string">E-Prime Primary Realtime Clock</Description><StartTime><Timestamp dt:dt="int">0</Timestamp><DateUtc dt:dt="string">2018-05-17T06:51:10Z</DateUtc></StartTime><FrequencyChanges><FrequencyChange><Frequency dt:dt="r8">2742441</Frequency><Timestamp dt:dt="r8">71645429962</Timestamp><Current dt:dt="r8">0</Current><DateUtc dt:dt="string">2018-05-17T06:51:10Z</DateUtc></FrequencyChange></FrequencyChanges></Clock>\n	Assim_main_chinese_500ms-401-1	60.017	1.0.0.76	1	-1368837126	Professional	2.0.10.353	2.0.10.353	05-17-2018	17-May-18 6:51:10 AM	16:51:10	2.0.10.248	12	5	1	2																																block5	explist														16																			3	1	16							1		0	83	626722	1499		0	0	0	4	0	-1	631220	0	6	1586	632806	1		0	13	632820	0		0	0	Thai_F2_maa315-2	1		0	-1	628221	2999		0	0	exproc	block5list	F2	maa	2	315
Assim_main_chinese_500ms	401	1	<?xml version="1.0"?>\n<Clock xmlns:dt="urn:schemas-microsoft-com:datatypes"><Description dt:dt="string">E-Prime Primary Realtime Clock</Description><StartTime><Timestamp dt:dt="int">0</Timestamp><DateUtc dt:dt="string">2018-05-17T06:51:10Z</DateUtc></StartTime><FrequencyChanges><FrequencyChange><Frequency dt:dt="r8">2742441</Frequency><Timestamp dt:dt="r8">71645429962</Timestamp><Current dt:dt="r8">0</Current><DateUtc dt:dt="string">2018-05-17T06:51:10Z</DateUtc></FrequencyChange></FrequencyChanges></Clock>\n	Assim_main_chinese_500ms-401-1	60.017	1.0.0.76	1	-1368837126	Professional	2.0.10.353	2.0.10.353	05-17-2018	17-May-18 6:51:10 AM	16:51:10	2.0.10.248	12	5	1	2																																block5	explist														17																			7	1	17							1		1	99	633919	1500		0	0	0	4	0	-1	638418	0	5	1116	639534	1		0	14	639551	0		0	0	Thai_F4_maa241-5	1		0	0	635419	2999		0	0	exproc	block5list	F4	maa	5	241
Assim_main_chinese_500ms	401	1	<?xml version="1.0"?>\n<Clock xmlns:dt="urn:schemas-microsoft-com:datatypes"><Description dt:dt="string">E-Prime Primary Realtime Clock</Description><StartTime><Timestamp dt:dt="int">0</Timestamp><DateUtc dt:dt="string">2018-05-17T06:51:10Z</DateUtc></StartTime><FrequencyChanges><FrequencyChange><Frequency dt:dt="r8">2742441</Frequency><Timestamp dt:dt="r8">71645429962</Timestamp><Current dt:dt="r8">0</Current><DateUtc dt:dt="string">2018-05-17T06:51:10Z</DateUtc></FrequencyChange></FrequencyChanges></Clock>\n	Assim_main_chinese_500ms-401-1	60.017	1.0.0.76	1	-1368837126	Professional	2.0.10.353	2.0.10.353	05-17-2018	17-May-18 6:51:10 AM	16:51:10	2.0.10.248	12	5	1	2																																block5	explist														18																			11	1	18							0		0	100	640651	1499	f	1333	641984	0	4	0	0	645150	0	5	1270	646420	1		0	12	646433	0		0	0	Thai_F2_maa21-4	1		1	-1	642150	3000		0	0	exproc	block5list	F2	maa	4	21
Assim_main_chinese_500ms	401	1	<?xml version="1.0"?>\n<Clock xmlns:dt="urn:schemas-microsoft-com:datatypes"><Description dt:dt="string">E-Prime Primary Realtime Clock</Description><StartTime><Timestamp dt:dt="int">0</Timestamp><DateUtc dt:dt="string">2018-05-17T06:51:10Z</DateUtc></StartTime><FrequencyChanges><FrequencyChange><Frequency dt:dt="r8">2742441</Frequency><Timestamp dt:dt="r8">71645429962</Timestamp><Current dt:dt="r8">0</Current><DateUtc dt:dt="string">2018-05-17T06:51:10Z</DateUtc></FrequencyChange></FrequencyChanges></Clock>\n	Assim_main_chinese_500ms-401-1	60.017	1.0.0.76	1	-1368837126	Professional	2.0.10.353	2.0.10.353	05-17-2018	17-May-18 6:51:10 AM	16:51:10	2.0.10.248	12	5	1	2																																block5	explist														19																			5	1	19							1		0	99	647532	1500		0	0	0	4	0	-1	652031	0	7	923	652954	1		0	26	652981	0		0	0	Thai_F2_maa45-1	1		0	0	649032	2999		0	0	exproc	block5list	F2	maa	1	45
Assim_main_chinese_500ms	401	1	<?xml version="1.0"?>\n<Clock xmlns:dt="urn:schemas-microsoft-com:datatypes"><Description dt:dt="string">E-Prime Primary Realtime Clock</Description><StartTime><Timestamp dt:dt="int">0</Timestamp><DateUtc dt:dt="string">2018-05-17T06:51:10Z</DateUtc></StartTime><FrequencyChanges><FrequencyChange><Frequency dt:dt="r8">2742441</Frequency><Timestamp dt:dt="r8">71645429962</Timestamp><Current dt:dt="r8">0</Current><DateUtc dt:dt="string">2018-05-17T06:51:10Z</DateUtc></FrequencyChange></FrequencyChanges></Clock>\n	Assim_main_chinese_500ms-401-1	60.017	1.0.0.76	1	-1368837126	Professional	2.0.10.353	2.0.10.353	05-17-2018	17-May-18 6:51:10 AM	16:51:10	2.0.10.248	12	5	1	2																																block5	explist														20																			13	1	20							0		0	99	654080	1500	d	1487	655567	0	4	0	-1	658579	0	7	1843	660422	1		0	23	660445	0		0	0	Thai_F2_maa315-3	1		0	0	655580	2999		0	0	exproc	block5list	F2	maa	3	315
Assim_main_chinese_500ms	401	1	<?xml version="1.0"?>\n<Clock xmlns:dt="urn:schemas-microsoft-com:datatypes"><Description dt:dt="string">E-Prime Primary Realtime Clock</Description><StartTime><Timestamp dt:dt="int">0</Timestamp><DateUtc dt:dt="string">2018-05-17T06:51:10Z</DateUtc></StartTime><FrequencyChanges><FrequencyChange><Frequency dt:dt="r8">2742441</Frequency><Timestamp dt:dt="r8">71645429962</Timestamp><Current dt:dt="r8">0</Current><DateUtc dt:dt="string">2018-05-17T06:51:10Z</DateUtc></FrequencyChange></FrequencyChanges></Clock>\n	Assim_main_chinese_500ms-401-1	60.017	1.0.0.76	1	-1368837126	Professional	2.0.10.353	2.0.10.353	05-17-2018	17-May-18 6:51:10 AM	16:51:10	2.0.10.248	13	2	1	3																																block2	explist														1							1	1	1																			1		0	105	754618	1500		0	0	1	4	0	22	756235	0	4	2202	758437	1		0	11	758451	0		0	0	Thai_F4_maa21-1	0		0	0	756118	0	f	95	756213	exproc	block2alist	F4	maa	1	21
Assim_main_chinese_500ms	401	1	<?xml version="1.0"?>\n<Clock xmlns:dt="urn:schemas-microsoft-com:datatypes"><Description dt:dt="string">E-Prime Primary Realtime Clock</Description><StartTime><Timestamp dt:dt="int">0</Timestamp><DateUtc dt:dt="string">2018-05-17T06:51:10Z</DateUtc></StartTime><FrequencyChanges><FrequencyChange><Frequency dt:dt="r8">2742441</Frequency><Timestamp dt:dt="r8">71645429962</Timestamp><Current dt:dt="r8">0</Current><DateUtc dt:dt="string">2018-05-17T06:51:10Z</DateUtc></FrequencyChange></FrequencyChanges></Clock>\n	Assim_main_chinese_500ms-401-1	60.017	1.0.0.76	1	-1368837126	Professional	2.0.10.353	2.0.10.353	05-17-2018	17-May-18 6:51:10 AM	16:51:10	2.0.10.248	13	2	1	3																																block2	explist														2							6	1	2																			1		0	99	759550	1500		0	0	0	4	1	9	762449	0	3	2451	764900	1		0	13	764915	0		0	0	Thai_F2_maa21-4	0		0	0	761050	0	f	1390	762440	exproc	block2alist	F4	maa	4	21
Assim_main_chinese_500ms	401	1	<?xml version="1.0"?>\n<Clock xmlns:dt="urn:schemas-microsoft-com:datatypes"><Description dt:dt="string">E-Prime Primary Realtime Clock</Description><StartTime><Timestamp dt:dt="int">0</Timestamp><DateUtc dt:dt="string">2018-05-17T06:51:10Z</DateUtc></StartTime><FrequencyChanges><FrequencyChange><Frequency dt:dt="r8">2742441</Frequency><Timestamp dt:dt="r8">71645429962</Timestamp><Current dt:dt="r8">0</Current><DateUtc dt:dt="string">2018-05-17T06:51:10Z</DateUtc></FrequencyChange></FrequencyChanges></Clock>\n	Assim_main_chinese_500ms-401-1	60.017	1.0.0.76	1	-1368837126	Professional	2.0.10.353	2.0.10.353	05-17-2018	17-May-18 6:51:10 AM	16:51:10	2.0.10.248	13	2	1	3																																block2	explist														3							2	1	3																			1		0	100	766015	1500		0	0	0	4	0	-1	770514	0	2	2626	773140	1		0	22	773163	0		0	0	Thai_F4_maa241-5	1		0	0	767515	2999		0	0	exproc	block2alist	F4	maa	5	241
Assim_main_chinese_500ms	401	1	<?xml version="1.0"?>\n<Clock xmlns:dt="urn:schemas-microsoft-com:datatypes"><Description dt:dt="string">E-Prime Primary Realtime Clock</Description><StartTime><Timestamp dt:dt="int">0</Timestamp><DateUtc dt:dt="string">2018-05-17T06:51:10Z</DateUtc></StartTime><FrequencyChanges><FrequencyChange><Frequency dt:dt="r8">2742441</Frequency><Timestamp dt:dt="r8">71645429962</Timestamp><Current dt:dt="r8">0</Current><DateUtc dt:dt="string">2018-05-17T06:51:10Z</DateUtc></FrequencyChange></FrequencyChanges></Clock>\n	Assim_main_chinese_500ms-401-1	60.017	1.0.0.76	1	-1368837126	Professional	2.0.10.353	2.0.10.353	05-17-2018	17-May-18 6:51:10 AM	16:51:10	2.0.10.248	13	2	1	3																																block2	explist														4							7	1	4																			1		0	100	774263	1499		0	0	0	4	1	-1	778761	0	3	966	779727	1		0	15	779744	0		0	0	Thai_F2_maa241-5	1		0	-1	775762	2999		0	0	exproc	block2alist	F4	maa	5	241
Assim_main_chinese_500ms	401	1	<?xml version="1.0"?>\n<Clock xmlns:dt="urn:schemas-microsoft-com:datatypes"><Description dt:dt="string">E-Prime Primary Realtime Clock</Description><StartTime><Timestamp dt:dt="int">0</Timestamp><DateUtc dt:dt="string">2018-05-17T06:51:10Z</DateUtc></StartTime><FrequencyChanges><FrequencyChange><Frequency dt:dt="r8">2742441</Frequency><Timestamp dt:dt="r8">71645429962</Timestamp><Current dt:dt="r8">0</Current><DateUtc dt:dt="string">2018-05-17T06:51:10Z</DateUtc></FrequencyChange></FrequencyChanges></Clock>\n	Assim_main_chinese_500ms-401-1	60.017	1.0.0.76	1	-1368837126	Professional	2.0.10.353	2.0.10.353	05-17-2018	17-May-18 6:51:10 AM	16:51:10	2.0.10.248	13	2	1	3																																block2	explist														5							3	1	5																			1		0	100	780844	1500		0	0	1	4	0	-1	785343	0	4	1656	786999	1		0	24	787026	0		0	0	Thai_F4_maa315-5	1		0	0	782344	2999		0	0	exproc	block2alist	F4	maa	5	315
Assim_main_chinese_500ms	401	1	<?xml version="1.0"?>\n<Clock xmlns:dt="urn:schemas-microsoft-com:datatypes"><Description dt:dt="string">E-Prime Primary Realtime Clock</Description><StartTime><Timestamp dt:dt="int">0</Timestamp><DateUtc dt:dt="string">2018-05-17T06:51:10Z</DateUtc></StartTime><FrequencyChanges><FrequencyChange><Frequency dt:dt="r8">2742441</Frequency><Timestamp dt:dt="r8">71645429962</Timestamp><Current dt:dt="r8">0</Current><DateUtc dt:dt="string">2018-05-17T06:51:10Z</DateUtc></FrequencyChange></FrequencyChanges></Clock>\n	Assim_main_chinese_500ms-401-1	60.017	1.0.0.76	1	-1368837126	Professional	2.0.10.353	2.0.10.353	05-17-2018	17-May-18 6:51:10 AM	16:51:10	2.0.10.248	13	2	1	3																																block2	explist														6							5	1	6																			1		0	83	788109	1499		0	0	0	4	1	-1	792607	0	5	984	793591	1		0	14	793607	0		0	0	Thai_F4_maa45-3	1		0	-1	789608	2999		0	0	exproc	block2alist	F4	maa	3	45
Assim_main_chinese_500ms	401	1	<?xml version="1.0"?>\n<Clock xmlns:dt="urn:schemas-microsoft-com:datatypes"><Description dt:dt="string">E-Prime Primary Realtime Clock</Description><StartTime><Timestamp dt:dt="int">0</Timestamp><DateUtc dt:dt="string">2018-05-17T06:51:10Z</DateUtc></StartTime><FrequencyChanges><FrequencyChange><Frequency dt:dt="r8">2742441</Frequency><Timestamp dt:dt="r8">71645429962</Timestamp><Current dt:dt="r8">0</Current><DateUtc dt:dt="string">2018-05-17T06:51:10Z</DateUtc></FrequencyChange></FrequencyChanges></Clock>\n	Assim_main_chinese_500ms-401-1	60.017	1.0.0.76	1	-1368837126	Professional	2.0.10.353	2.0.10.353	05-17-2018	17-May-18 6:51:10 AM	16:51:10	2.0.10.248	13	2	1	3																																block2	explist														7							9	1	7																			1		0	100	794707	1499		0	0	0	4	0	7	797090	0	6	2047	799137	1		0	16	799156	0		0	0	Thai_F2_maa33-5	0		1	-1	796206	0	f	877	797083	exproc	block2alist	F4	maa	5	33
Assim_main_chinese_500ms	401	1	<?xml version="1.0"?>\n<Clock xmlns:dt="urn:schemas-microsoft-com:datatypes"><Description dt:dt="string">E-Prime Primary Realtime Clock</Description><StartTime><Timestamp dt:dt="int">0</Timestamp><DateUtc dt:dt="string">2018-05-17T06:51:10Z</DateUtc></StartTime><FrequencyChanges><FrequencyChange><Frequency dt:dt="r8">2742441</Frequency><Timestamp dt:dt="r8">71645429962</Timestamp><Current dt:dt="r8">0</Current><DateUtc dt:dt="string">2018-05-17T06:51:10Z</DateUtc></FrequencyChange></FrequencyChanges></Clock>\n	Assim_main_chinese_500ms-401-1	60.017	1.0.0.76	1	-1368837126	Professional	2.0.10.353	2.0.10.353	05-17-2018	17-May-18 6:51:10 AM	16:51:10	2.0.10.248	13	2	1	3																																block2	explist														8							8	1	8																			1		0	99	800255	1500		0	0	0	4	0	-1	804754	0	6	1348	806102	1		0	14	806120	0		0	0	Thai_F2_maa315-3	1		0	0	801755	2999		0	0	exproc	block2alist	F4	maa	3	315
Assim_main_chinese_500ms	401	1	<?xml version="1.0"?>\n<Clock xmlns:dt="urn:schemas-microsoft-com:datatypes"><Description dt:dt="string">E-Prime Primary Realtime Clock</Description><StartTime><Timestamp dt:dt="int">0</Timestamp><DateUtc dt:dt="string">2018-05-17T06:51:10Z</DateUtc></StartTime><FrequencyChanges><FrequencyChange><Frequency dt:dt="r8">2742441</Frequency><Timestamp dt:dt="r8">71645429962</Timestamp><Current dt:dt="r8">0</Current><DateUtc dt:dt="string">2018-05-17T06:51:10Z</DateUtc></FrequencyChange></FrequencyChanges></Clock>\n	Assim_main_chinese_500ms-401-1	60.017	1.0.0.76	1	-1368837126	Professional	2.0.10.353	2.0.10.353	05-17-2018	17-May-18 6:51:10 AM	16:51:10	2.0.10.248	13	2	1	3																																block2	explist														9							10	1	9																			1		0	83	807203	1500		0	0	0	4	0	-1	811702	0	7	1672	813374	1		0	9	813385	0		0	0	Thai_F2_maa45-2	1		0	0	808703	2999		0	0	exproc	block2alist	F4	maa	2	45
Assim_main_chinese_500ms	401	1	<?xml version="1.0"?>\n<Clock xmlns:dt="urn:schemas-microsoft-com:datatypes"><Description dt:dt="string">E-Prime Primary Realtime Clock</Description><StartTime><Timestamp dt:dt="int">0</Timestamp><DateUtc dt:dt="string">2018-05-17T06:51:10Z</DateUtc></StartTime><FrequencyChanges><FrequencyChange><Frequency dt:dt="r8">2742441</Frequency><Timestamp dt:dt="r8">71645429962</Timestamp><Current dt:dt="r8">0</Current><DateUtc dt:dt="string">2018-05-17T06:51:10Z</DateUtc></FrequencyChange></FrequencyChanges></Clock>\n	Assim_main_chinese_500ms-401-1	60.017	1.0.0.76	1	-1368837126	Professional	2.0.10.353	2.0.10.353	05-17-2018	17-May-18 6:51:10 AM	16:51:10	2.0.10.248	13	2	1	3																																block2	explist														10							4	1	10																			1		0	100	814485	1499		0	0	0	4	1	7	816767	0	3	2369	819136	1		0	11	819150	0		0	0	Thai_F4_maa33-1	0		0	-1	815984	0	f	776	816760	exproc	block2alist	F4	maa	1	33
Assim_main_chinese_500ms	401	1	<?xml version="1.0"?>\n<Clock xmlns:dt="urn:schemas-microsoft-com:datatypes"><Description dt:dt="string">E-Prime Primary Realtime Clock</Description><StartTime><Timestamp dt:dt="int">0</Timestamp><DateUtc dt:dt="string">2018-05-17T06:51:10Z</DateUtc></StartTime><FrequencyChanges><FrequencyChange><Frequency dt:dt="r8">2742441</Frequency><Timestamp dt:dt="r8">71645429962</Timestamp><Current dt:dt="r8">0</Current><DateUtc dt:dt="string">2018-05-17T06:51:10Z</DateUtc></FrequencyChange></FrequencyChanges></Clock>\n	Assim_main_chinese_500ms-401-1	60.017	1.0.0.76	1	-1368837126	Professional	2.0.10.353	2.0.10.353	05-17-2018	17-May-18 6:51:10 AM	16:51:10	2.0.10.248	13	2	1	3																																block2	explist														11										8	1	1																1		0	83	820233	1499		0	0	0	4	0	0	824732	0	1	2661	827393	1		0	19	827414	0		0	0	Thai_F4_mii315-6	1		1	-1	821732	3000		0	0	exproc	block2blist	F4	mii	6	315
Assim_main_chinese_500ms	401	1	<?xml version="1.0"?>\n<Clock xmlns:dt="urn:schemas-microsoft-com:datatypes"><Description dt:dt="string">E-Prime Primary Realtime Clock</Description><StartTime><Timestamp dt:dt="int">0</Timestamp><DateUtc dt:dt="string">2018-05-17T06:51:10Z</DateUtc></StartTime><FrequencyChanges><FrequencyChange><Frequency dt:dt="r8">2742441</Frequency><Timestamp dt:dt="r8">71645429962</Timestamp><Current dt:dt="r8">0</Current><DateUtc dt:dt="string">2018-05-17T06:51:10Z</DateUtc></FrequencyChange></FrequencyChanges></Clock>\n	Assim_main_chinese_500ms-401-1	60.017	1.0.0.76	1	-1368837126	Professional	2.0.10.353	2.0.10.353	05-17-2018	17-May-18 6:51:10 AM	16:51:10	2.0.10.248	13	2	1	3																																block2	explist														12										5	1	2																1		0	83	828497	1500		0	0	0	4	0	-1	832996	0	6	1026	834022	1		0	22	834046	0		0	0	Thai_F4_mii45-2	1		0	0	829997	2999		0	0	exproc	block2blist	F4	mii	2	45
Assim_main_chinese_500ms	401	1	<?xml version="1.0"?>\n<Clock xmlns:dt="urn:schemas-microsoft-com:datatypes"><Description dt:dt="string">E-Prime Primary Realtime Clock</Description><StartTime><Timestamp dt:dt="int">0</Timestamp><DateUtc dt:dt="string">2018-05-17T06:51:10Z</DateUtc></StartTime><FrequencyChanges><FrequencyChange><Frequency dt:dt="r8">2742441</Frequency><Timestamp dt:dt="r8">71645429962</Timestamp><Current dt:dt="r8">0</Current><DateUtc dt:dt="string">2018-05-17T06:51:10Z</DateUtc></FrequencyChange></FrequencyChanges></Clock>\n	Assim_main_chinese_500ms-401-1	60.017	1.0.0.76	1	-1368837126	Professional	2.0.10.353	2.0.10.353	05-17-2018	17-May-18 6:51:10 AM	16:51:10	2.0.10.248	13	2	1	3																																block2	explist														13										6	1	3																1		0	99	835145	1500		0	0	1	4	0	18	837545	0	4	2102	839647	1		0	13	839661	0		0	0	Thai_F4_mii21-6	0		0	0	836645	0	f	882	837527	exproc	block2blist	F4	mii	6	21
Assim_main_chinese_500ms	401	1	<?xml version="1.0"?>\n<Clock xmlns:dt="urn:schemas-microsoft-com:datatypes"><Description dt:dt="string">E-Prime Primary Realtime Clock</Description><StartTime><Timestamp dt:dt="int">0</Timestamp><DateUtc dt:dt="string">2018-05-17T06:51:10Z</DateUtc></StartTime><FrequencyChanges><FrequencyChange><Frequency dt:dt="r8">2742441</Frequency><Timestamp dt:dt="r8">71645429962</Timestamp><Current dt:dt="r8">0</Current><DateUtc dt:dt="string">2018-05-17T06:51:10Z</DateUtc></FrequencyChange></FrequencyChanges></Clock>\n	Assim_main_chinese_500ms-401-1	60.017	1.0.0.76	1	-1368837126	Professional	2.0.10.353	2.0.10.353	05-17-2018	17-May-18 6:51:10 AM	16:51:10	2.0.10.248	13	2	1	3																																block2	explist														14										10	1	4																1		0	99	840760	1500		0	0	0	4	1	20	842776	0	5	2796	845572	1		0	18	845592	0		0	0	Thai_F4_mii45-3	0		0	0	842260	0	j	496	842756	exproc	block2blist	F4	mii	3	45
Assim_main_chinese_500ms	401	1	<?xml version="1.0"?>\n<Clock xmlns:dt="urn:schemas-microsoft-com:datatypes"><Description dt:dt="string">E-Prime Primary Realtime Clock</Description><StartTime><Timestamp dt:dt="int">0</Timestamp><DateUtc dt:dt="string">2018-05-17T06:51:10Z</DateUtc></StartTime><FrequencyChanges><FrequencyChange><Frequency dt:dt="r8">2742441</Frequency><Timestamp dt:dt="r8">71645429962</Timestamp><Current dt:dt="r8">0</Current><DateUtc dt:dt="string">2018-05-17T06:51:10Z</DateUtc></FrequencyChange></FrequencyChanges></Clock>\n	Assim_main_chinese_500ms-401-1	60.017	1.0.0.76	1	-1368837126	Professional	2.0.10.353	2.0.10.353	05-17-2018	17-May-18 6:51:10 AM	16:51:10	2.0.10.248	13	2	1	3																																block2	explist														15										2	1	5																1		0	100	846692	1500		0	0	0	4	0	7	849108	0	5	2882	851990	1		0	16	852007	0		0	0	Thai_F4_mii241-2	0		0	0	848192	0	f	909	849101	exproc	block2blist	F4	mii	2	241
Assim_main_chinese_500ms	401	1	<?xml version="1.0"?>\n<Clock xmlns:dt="urn:schemas-microsoft-com:datatypes"><Description dt:dt="string">E-Prime Primary Realtime Clock</Description><StartTime><Timestamp dt:dt="int">0</Timestamp><DateUtc dt:dt="string">2018-05-17T06:51:10Z</DateUtc></StartTime><FrequencyChanges><FrequencyChange><Frequency dt:dt="r8">2742441</Frequency><Timestamp dt:dt="r8">71645429962</Timestamp><Current dt:dt="r8">0</Current><DateUtc dt:dt="string">2018-05-17T06:51:10Z</DateUtc></FrequencyChange></FrequencyChanges></Clock>\n	Assim_main_chinese_500ms-401-1	60.017	1.0.0.76	1	-1368837126	Professional	2.0.10.353	2.0.10.353	05-17-2018	17-May-18 6:51:10 AM	16:51:10	2.0.10.248	13	2	1	3																																block2	explist														16										1	1	6																1		0	100	853107	1499		0	0	0	4	0	18	856389	0	1	1880	858269	1		0	17	858289	0		0	0	Thai_F4_mii21-2	0		0	-1	854606	0	f	1765	856371	exproc	block2blist	F4	mii	2	21
Assim_main_chinese_500ms	401	1	<?xml version="1.0"?>\n<Clock xmlns:dt="urn:schemas-microsoft-com:datatypes"><Description dt:dt="string">E-Prime Primary Realtime Clock</Description><StartTime><Timestamp dt:dt="int">0</Timestamp><DateUtc dt:dt="string">2018-05-17T06:51:10Z</DateUtc></StartTime><FrequencyChanges><FrequencyChange><Frequency dt:dt="r8">2742441</Frequency><Timestamp dt:dt="r8">71645429962</Timestamp><Current dt:dt="r8">0</Current><DateUtc dt:dt="string">2018-05-17T06:51:10Z</DateUtc></FrequencyChange></FrequencyChanges></Clock>\n	Assim_main_chinese_500ms-401-1	60.017	1.0.0.76	1	-1368837126	Professional	2.0.10.353	2.0.10.353	05-17-2018	17-May-18 6:51:10 AM	16:51:10	2.0.10.248	13	2	1	3																																block2	explist														17										9	1	7																1		1	99	859388	1500		0	0	0	4	0	17	860971	0	5	2686	863657	1		0	10	863670	0		0	0	Thai_F4_mii33-6	0		0	0	860888	0	f	66	860954	exproc	block2blist	F4	mii	6	33
Assim_main_chinese_500ms	401	1	<?xml version="1.0"?>\n<Clock xmlns:dt="urn:schemas-microsoft-com:datatypes"><Description dt:dt="string">E-Prime Primary Realtime Clock</Description><StartTime><Timestamp dt:dt="int">0</Timestamp><DateUtc dt:dt="string">2018-05-17T06:51:10Z</DateUtc></StartTime><FrequencyChanges><FrequencyChange><Frequency dt:dt="r8">2742441</Frequency><Timestamp dt:dt="r8">71645429962</Timestamp><Current dt:dt="r8">0</Current><DateUtc dt:dt="string">2018-05-17T06:51:10Z</DateUtc></FrequencyChange></FrequencyChanges></Clock>\n	Assim_main_chinese_500ms-401-1	60.017	1.0.0.76	1	-1368837126	Professional	2.0.10.353	2.0.10.353	05-17-2018	17-May-18 6:51:10 AM	16:51:10	2.0.10.248	13	2	1	3																																block2	explist														18										3	1	8																1		0	100	864770	1500		0	0	0	4	0	11	868019	0	1	1927	869946	1		0	23	869969	0		0	0	Thai_F4_mii315-4	0		0	0	866270	0	j	1738	868008	exproc	block2blist	F4	mii	4	315
Assim_main_chinese_500ms	401	1	<?xml version="1.0"?>\n<Clock xmlns:dt="urn:schemas-microsoft-com:datatypes"><Description dt:dt="string">E-Prime Primary Realtime Clock</Description><StartTime><Timestamp dt:dt="int">0</Timestamp><DateUtc dt:dt="string">2018-05-17T06:51:10Z</DateUtc></StartTime><FrequencyChanges><FrequencyChange><Frequency dt:dt="r8">2742441</Frequency><Timestamp dt:dt="r8">71645429962</Timestamp><Current dt:dt="r8">0</Current><DateUtc dt:dt="string">2018-05-17T06:51:10Z</DateUtc></FrequencyChange></FrequencyChanges></Clock>\n	Assim_main_chinese_500ms-401-1	60.017	1.0.0.76	1	-1368837126	Professional	2.0.10.353	2.0.10.353	05-17-2018	17-May-18 6:51:10 AM	16:51:10	2.0.10.248	13	2	1	3																																block2	explist														19										4	1	9																1		0	83	871052	1499		0	0	0	4	0	16	873351	0	6	2852	876203	1		0	12	876217	0		0	0	Thai_F4_mii33-5	0		0	-1	872551	0	f	784	873335	exproc	block2blist	F4	mii	5	33
Assim_main_chinese_500ms	401	1	<?xml version="1.0"?>\n<Clock xmlns:dt="urn:schemas-microsoft-com:datatypes"><Description dt:dt="string">E-Prime Primary Realtime Clock</Description><StartTime><Timestamp dt:dt="int">0</Timestamp><DateUtc dt:dt="string">2018-05-17T06:51:10Z</DateUtc></StartTime><FrequencyChanges><FrequencyChange><Frequency dt:dt="r8">2742441</Frequency><Timestamp dt:dt="r8">71645429962</Timestamp><Current dt:dt="r8">0</Current><DateUtc dt:dt="string">2018-05-17T06:51:10Z</DateUtc></FrequencyChange></FrequencyChanges></Clock>\n	Assim_main_chinese_500ms-401-1	60.017	1.0.0.76	1	-1368837126	Professional	2.0.10.353	2.0.10.353	05-17-2018	17-May-18 6:51:10 AM	16:51:10	2.0.10.248	13	2	1	3																																block2	explist														20										7	1	10																1		0	116	877333	1500		0	0	0	4	0	-1	881832	0	3	2407	884239	1		0	24	884265	0		0	0	Thai_F4_mii241-5	1		0	0	878833	2999		0	0	exproc	block2blist	F4	mii	5	241
Assim_main_chinese_500ms	401	1	<?xml version="1.0"?>\n<Clock xmlns:dt="urn:schemas-microsoft-com:datatypes"><Description dt:dt="string">E-Prime Primary Realtime Clock</Description><StartTime><Timestamp dt:dt="int">0</Timestamp><DateUtc dt:dt="string">2018-05-17T06:51:10Z</DateUtc></StartTime><FrequencyChanges><FrequencyChange><Frequency dt:dt="r8">2742441</Frequency><Timestamp dt:dt="r8">71645429962</Timestamp><Current dt:dt="r8">0</Current><DateUtc dt:dt="string">2018-05-17T06:51:10Z</DateUtc></FrequencyChange></FrequencyChanges></Clock>\n	Assim_main_chinese_500ms-401-1	60.017	1.0.0.76	1	-1368837126	Professional	2.0.10.353	2.0.10.353	05-17-2018	17-May-18 6:51:10 AM	16:51:10	2.0.10.248	14	3	1	4																																block3	explist														1													19	1	1													1		0	96	891013	1499		0	0	0	4	1	16	893145	0	6	2511	895656	1		0	18	895678	0		0	0	Thai_F2_mii33-5	0		0	-1	892512	0	f	617	893129	exproc	block3list	F2	mii	5	33
Assim_main_chinese_500ms	401	1	<?xml version="1.0"?>\n<Clock xmlns:dt="urn:schemas-microsoft-com:datatypes"><Description dt:dt="string">E-Prime Primary Realtime Clock</Description><StartTime><Timestamp dt:dt="int">0</Timestamp><DateUtc dt:dt="string">2018-05-17T06:51:10Z</DateUtc></StartTime><FrequencyChanges><FrequencyChange><Frequency dt:dt="r8">2742441</Frequency><Timestamp dt:dt="r8">71645429962</Timestamp><Current dt:dt="r8">0</Current><DateUtc dt:dt="string">2018-05-17T06:51:10Z</DateUtc></FrequencyChange></FrequencyChanges></Clock>\n	Assim_main_chinese_500ms-401-1	60.017	1.0.0.76	1	-1368837126	Professional	2.0.10.353	2.0.10.353	05-17-2018	17-May-18 6:51:10 AM	16:51:10	2.0.10.248	14	3	1	4																																block3	explist														2													8	1	2													1		0	100	896778	1499		0	0	0	4	0	11	899227	0	5	2029	901256	1		0	16	901276	0		0	0	Thai_F2_mii315-1	0		0	-1	898277	0	j	939	899216	exproc	block3list	F2	mii	1	315
Assim_main_chinese_500ms	401	1	<?xml version="1.0"?>\n<Clock xmlns:dt="urn:schemas-microsoft-com:datatypes"><Description dt:dt="string">E-Prime Primary Realtime Clock</Description><StartTime><Timestamp dt:dt="int">0</Timestamp><DateUtc dt:dt="string">2018-05-17T06:51:10Z</DateUtc></StartTime><FrequencyChanges><FrequencyChange><Frequency dt:dt="r8">2742441</Frequency><Timestamp dt:dt="r8">71645429962</Timestamp><Current dt:dt="r8">0</Current><DateUtc dt:dt="string">2018-05-17T06:51:10Z</DateUtc></FrequencyChange></FrequencyChanges></Clock>\n	Assim_main_chinese_500ms-401-1	60.017	1.0.0.76	1	-1368837126	Professional	2.0.10.353	2.0.10.353	05-17-2018	17-May-18 6:51:10 AM	16:51:10	2.0.10.248	14	3	1	4																																block3	explist														3													20	1	3													1		1	83	902359	1500		0	0	0	4	0	20	904276	0	5	1160	905436	1		0	20	905459	0		0	0	Thai_F2_mii45-3	0		0	0	903859	0	j	397	904256	exproc	block3list	F2	mii	3	45
Assim_main_chinese_500ms	401	1	<?xml version="1.0"?>\n<Clock xmlns:dt="urn:schemas-microsoft-com:datatypes"><Description dt:dt="string">E-Prime Primary Realtime Clock</Description><StartTime><Timestamp dt:dt="int">0</Timestamp><DateUtc dt:dt="string">2018-05-17T06:51:10Z</DateUtc></StartTime><FrequencyChanges><FrequencyChange><Frequency dt:dt="r8">2742441</Frequency><Timestamp dt:dt="r8">71645429962</Timestamp><Current dt:dt="r8">0</Current><DateUtc dt:dt="string">2018-05-17T06:51:10Z</DateUtc></FrequencyChange></FrequencyChanges></Clock>\n	Assim_main_chinese_500ms-401-1	60.017	1.0.0.76	1	-1368837126	Professional	2.0.10.353	2.0.10.353	05-17-2018	17-May-18 6:51:10 AM	16:51:10	2.0.10.248	14	3	1	4																																block3	explist														4													3	1	4													1		0	99	906558	1500		0	0	0	4	0	15	908524	0	5	1180	909704	1		0	19	909724	0		0	0	Thai_F2_maa315-2	0		0	0	908058	0	j	451	908509	exproc	block3list	F2	maa	2	315
Assim_main_chinese_500ms	401	1	<?xml version="1.0"?>\n<Clock xmlns:dt="urn:schemas-microsoft-com:datatypes"><Description dt:dt="string">E-Prime Primary Realtime Clock</Description><StartTime><Timestamp dt:dt="int">0</Timestamp><DateUtc dt:dt="string">2018-05-17T06:51:10Z</DateUtc></StartTime><FrequencyChanges><FrequencyChange><Frequency dt:dt="r8">2742441</Frequency><Timestamp dt:dt="r8">71645429962</Timestamp><Current dt:dt="r8">0</Current><DateUtc dt:dt="string">2018-05-17T06:51:10Z</DateUtc></FrequencyChange></FrequencyChanges></Clock>\n	Assim_main_chinese_500ms-401-1	60.017	1.0.0.76	1	-1368837126	Professional	2.0.10.353	2.0.10.353	05-17-2018	17-May-18 6:51:10 AM	16:51:10	2.0.10.248	14	3	1	4																																block3	explist														5													7	1	5													1		0	100	910824	1499		0	0	0	4	0	13	912523	0	1	1272	913795	1		0	11	913806	0		0	0	Thai_F2_mii241-2	0		0	-1	912323	0	f	187	912510	exproc	block3list	F2	mii	2	241
Assim_main_chinese_500ms	401	1	<?xml version="1.0"?>\n<Clock xmlns:dt="urn:schemas-microsoft-com:datatypes"><Description dt:dt="string">E-Prime Primary Realtime Clock</Description><StartTime><Timestamp dt:dt="int">0</Timestamp><DateUtc dt:dt="string">2018-05-17T06:51:10Z</DateUtc></StartTime><FrequencyChanges><FrequencyChange><Frequency dt:dt="r8">2742441</Frequency><Timestamp dt:dt="r8">71645429962</Timestamp><Current dt:dt="r8">0</Current><DateUtc dt:dt="string">2018-05-17T06:51:10Z</DateUtc></FrequencyChange></FrequencyChanges></Clock>\n	Assim_main_chinese_500ms-401-1	60.017	1.0.0.76	1	-1368837126	Professional	2.0.10.353	2.0.10.353	05-17-2018	17-May-18 6:51:10 AM	16:51:10	2.0.10.248	14	3	1	4																																block3	explist														6													11	1	6													1		0	100	914906	1499		0	0	0	4	0	8	916622	0	1	1288	917910	1		0	26	917938	0		0	0	Thai_F2_maa21-4	0		0	-1	916405	0	f	209	916614	exproc	block3list	F2	maa	4	21
Assim_main_chinese_500ms	401	1	<?xml version="1.0"?>\n<Clock xmlns:dt="urn:schemas-microsoft-com:datatypes"><Description dt:dt="string">E-Prime Primary Realtime Clock</Description><StartTime><Timestamp dt:dt="int">0</Timestamp><DateUtc dt:dt="string">2018-05-17T06:51:10Z</DateUtc></StartTime><FrequencyChanges><FrequencyChange><Frequency dt:dt="r8">2742441</Frequency><Timestamp dt:dt="r8">71645429962</Timestamp><Current dt:dt="r8">0</Current><DateUtc dt:dt="string">2018-05-17T06:51:10Z</DateUtc></FrequencyChange></FrequencyChanges></Clock>\n	Assim_main_chinese_500ms-401-1	60.017	1.0.0.76	1	-1368837126	Professional	2.0.10.353	2.0.10.353	05-17-2018	17-May-18 6:51:10 AM	16:51:10	2.0.10.248	14	3	1	4																																block3	explist														7													13	1	7													0		0	83	919021	1500	j	1318	920339	0	4	0	-1	923520	4016		0	0	0		0	16	927536	0	6	12	927548	Thai_F2_maa315-3	1		0	0	920521	2999		0	0	exproc	block3list	F2	maa	3	315
Assim_main_chinese_500ms	401	1	<?xml version="1.0"?>\n<Clock xmlns:dt="urn:schemas-microsoft-com:datatypes"><Description dt:dt="string">E-Prime Primary Realtime Clock</Description><StartTime><Timestamp dt:dt="int">0</Timestamp><DateUtc dt:dt="string">2018-05-17T06:51:10Z</DateUtc></StartTime><FrequencyChanges><FrequencyChange><Frequency dt:dt="r8">2742441</Frequency><Timestamp dt:dt="r8">71645429962</Timestamp><Current dt:dt="r8">0</Current><DateUtc dt:dt="string">2018-05-17T06:51:10Z</DateUtc></FrequencyChange></FrequencyChanges></Clock>\n	Assim_main_chinese_500ms-401-1	60.017	1.0.0.76	1	-1368837126	Professional	2.0.10.353	2.0.10.353	05-17-2018	17-May-18 6:51:10 AM	16:51:10	2.0.10.248	14	3	1	4																																block3	explist														8													10	1	8													1		0	99	928635	1500		0	0	0	4	0	13	932951	0	5	1841	934792	1		0	24	934817	0		0	0	Thai_F2_mii45-2	0		0	0	930135	0	j	2803	932938	exproc	block3list	F2	mii	2	45
Assim_main_chinese_500ms	401	1	<?xml version="1.0"?>\n<Clock xmlns:dt="urn:schemas-microsoft-com:datatypes"><Description dt:dt="string">E-Prime Primary Realtime Clock</Description><StartTime><Timestamp dt:dt="int">0</Timestamp><DateUtc dt:dt="string">2018-05-17T06:51:10Z</DateUtc></StartTime><FrequencyChanges><FrequencyChange><Frequency dt:dt="r8">2742441</Frequency><Timestamp dt:dt="r8">71645429962</Timestamp><Current dt:dt="r8">0</Current><DateUtc dt:dt="string">2018-05-17T06:51:10Z</DateUtc></FrequencyChange></FrequencyChanges></Clock>\n	Assim_main_chinese_500ms-401-1	60.017	1.0.0.76	1	-1368837126	Professional	2.0.10.353	2.0.10.353	05-17-2018	17-May-18 6:51:10 AM	16:51:10	2.0.10.248	14	3	1	4																																block3	explist														9													2	1	9													1		0	116	935933	1500		0	0	0	4	0	-1	940432	0	2	1011	941443	1		0	20	941465	0		0	0	Thai_F2_maa241-3	1		0	0	937433	2999		0	0	exproc	block3list	F2	maa	3	241
Assim_main_chinese_500ms	401	1	<?xml version="1.0"?>\n<Clock xmlns:dt="urn:schemas-microsoft-com:datatypes"><Description dt:dt="string">E-Prime Primary Realtime Clock</Description><StartTime><Timestamp dt:dt="int">0</Timestamp><DateUtc dt:dt="string">2018-05-17T06:51:10Z</DateUtc></StartTime><FrequencyChanges><FrequencyChange><Frequency dt:dt="r8">2742441</Frequency><Timestamp dt:dt="r8">71645429962</Timestamp><Current dt:dt="r8">0</Current><DateUtc dt:dt="string">2018-05-17T06:51:10Z</DateUtc></FrequencyChange></FrequencyChanges></Clock>\n	Assim_main_chinese_500ms-401-1	60.017	1.0.0.76	1	-1368837126	Professional	2.0.10.353	2.0.10.353	05-17-2018	17-May-18 6:51:10 AM	16:51:10	2.0.10.248	14	3	1	4																																block3	explist														10													16	1	10													1		0	100	942565	1499		0	0	0	4	0	12	944731	0	3	1077	945808	1		0	22	945830	0		0	0	Thai_F2_mii21-5	0		0	-1	944064	0	f	655	944719	exproc	block3list	F2	mii	5	21
Assim_main_chinese_500ms	401	1	<?xml version="1.0"?>\n<Clock xmlns:dt="urn:schemas-microsoft-com:datatypes"><Description dt:dt="string">E-Prime Primary Realtime Clock</Description><StartTime><Timestamp dt:dt="int">0</Timestamp><DateUtc dt:dt="string">2018-05-17T06:51:10Z</DateUtc></StartTime><FrequencyChanges><FrequencyChange><Frequency dt:dt="r8">2742441</Frequency><Timestamp dt:dt="r8">71645429962</Timestamp><Current dt:dt="r8">0</Current><DateUtc dt:dt="string">2018-05-17T06:51:10Z</DateUtc></FrequencyChange></FrequencyChanges></Clock>\n	Assim_main_chinese_500ms-401-1	60.017	1.0.0.76	1	-1368837126	Professional	2.0.10.353	2.0.10.353	05-17-2018	17-May-18 6:51:10 AM	16:51:10	2.0.10.248	14	3	1	4																																block3	explist														11													15	1	11													0		0	117	946947	1499	d	1396	948343	0	4	1	-1	951445	0	5	1110	952555	1		0	23	952578	0		0	0	Thai_F2_maa45-2	1		0	-1	948446	2999		0	0	exproc	block3list	F2	maa	2	45
Assim_main_chinese_500ms	401	1	<?xml version="1.0"?>\n<Clock xmlns:dt="urn:schemas-microsoft-com:datatypes"><Description dt:dt="string">E-Prime Primary Realtime Clock</Description><StartTime><Timestamp dt:dt="int">0</Timestamp><DateUtc dt:dt="string">2018-05-17T06:51:10Z</DateUtc></StartTime><FrequencyChanges><FrequencyChange><Frequency dt:dt="r8">2742441</Frequency><Timestamp dt:dt="r8">71645429962</Timestamp><Current dt:dt="r8">0</Current><DateUtc dt:dt="string">2018-05-17T06:51:10Z</DateUtc></FrequencyChange></FrequencyChanges></Clock>\n	Assim_main_chinese_500ms-401-1	60.017	1.0.0.76	1	-1368837126	Professional	2.0.10.353	2.0.10.353	05-17-2018	17-May-18 6:51:10 AM	16:51:10	2.0.10.248	14	3	1	4																																block3	explist														12													6	1	12													1		1	83	953661	1500		0	0	0	4	0	10	955844	0	3	1011	956855	1		0	18	956877	0		0	0	Thai_F2_mii21-2	0		0	0	955161	0	f	673	955834	exproc	block3list	F2	mii	2	21
Assim_main_chinese_500ms	401	1	<?xml version="1.0"?>\n<Clock xmlns:dt="urn:schemas-microsoft-com:datatypes"><Description dt:dt="string">E-Prime Primary Realtime Clock</Description><StartTime><Timestamp dt:dt="int">0</Timestamp><DateUtc dt:dt="string">2018-05-17T06:51:10Z</DateUtc></StartTime><FrequencyChanges><FrequencyChange><Frequency dt:dt="r8">2742441</Frequency><Timestamp dt:dt="r8">71645429962</Timestamp><Current dt:dt="r8">0</Current><DateUtc dt:dt="string">2018-05-17T06:51:10Z</DateUtc></FrequencyChange></FrequencyChanges></Clock>\n	Assim_main_chinese_500ms-401-1	60.017	1.0.0.76	1	-1368837126	Professional	2.0.10.353	2.0.10.353	05-17-2018	17-May-18 6:51:10 AM	16:51:10	2.0.10.248	14	3	1	4																																block3	explist														13													9	1	13													1		0	83	957960	1500		0	0	0	4	0	-1	962459	0	6	3856	966315	1		0	23	966341	0		0	0	Thai_F2_mii33-3	1		0	0	959460	2999		0	0	exproc	block3list	F2	mii	3	33
Assim_main_chinese_500ms	401	1	<?xml version="1.0"?>\n<Clock xmlns:dt="urn:schemas-microsoft-com:datatypes"><Description dt:dt="string">E-Prime Primary Realtime Clock</Description><StartTime><Timestamp dt:dt="int">0</Timestamp><DateUtc dt:dt="string">2018-05-17T06:51:10Z</DateUtc></StartTime><FrequencyChanges><FrequencyChange><Frequency dt:dt="r8">2742441</Frequency><Timestamp dt:dt="r8">71645429962</Timestamp><Current dt:dt="r8">0</Current><DateUtc dt:dt="string">2018-05-17T06:51:10Z</DateUtc></FrequencyChange></FrequencyChanges></Clock>\n	Assim_main_chinese_500ms-401-1	60.017	1.0.0.76	1	-1368837126	Professional	2.0.10.353	2.0.10.353	05-17-2018	17-May-18 6:51:10 AM	16:51:10	2.0.10.248	14	3	1	4																																block3	explist														14													1	1	14													1		0	100	967441	1499		0	0	1	4	0	11	971506	0	4	1222	972728	1		0	25	972756	0		0	0	Thai_F2_maa21-1	0		1	-1	968940	0	f	2555	971495	exproc	block3list	F2	maa	1	21
Assim_main_chinese_500ms	401	1	<?xml version="1.0"?>\n<Clock xmlns:dt="urn:schemas-microsoft-com:datatypes"><Description dt:dt="string">E-Prime Primary Realtime Clock</Description><StartTime><Timestamp dt:dt="int">0</Timestamp><DateUtc dt:dt="string">2018-05-17T06:51:10Z</DateUtc></StartTime><FrequencyChanges><FrequencyChange><Frequency dt:dt="r8">2742441</Frequency><Timestamp dt:dt="r8">71645429962</Timestamp><Current dt:dt="r8">0</Current><DateUtc dt:dt="string">2018-05-17T06:51:10Z</DateUtc></FrequencyChange></FrequencyChanges></Clock>\n	Assim_main_chinese_500ms-401-1	60.017	1.0.0.76	1	-1368837126	Professional	2.0.10.353	2.0.10.353	05-17-2018	17-May-18 6:51:10 AM	16:51:10	2.0.10.248	14	3	1	4																																block3	explist														15													17	1	15													1		0	100	973856	1499		0	0	0	4	0	15	976672	0	7	1149	977821	1		0	15	977838	0		0	0	Thai_F2_mii241-3	0		0	-1	975355	0	f	1302	976657	exproc	block3list	F2	mii	3	241
Assim_main_chinese_500ms	401	1	<?xml version="1.0"?>\n<Clock xmlns:dt="urn:schemas-microsoft-com:datatypes"><Description dt:dt="string">E-Prime Primary Realtime Clock</Description><StartTime><Timestamp dt:dt="int">0</Timestamp><DateUtc dt:dt="string">2018-05-17T06:51:10Z</DateUtc></StartTime><FrequencyChanges><FrequencyChange><Frequency dt:dt="r8">2742441</Frequency><Timestamp dt:dt="r8">71645429962</Timestamp><Current dt:dt="r8">0</Current><DateUtc dt:dt="string">2018-05-17T06:51:10Z</DateUtc></FrequencyChange></FrequencyChanges></Clock>\n	Assim_main_chinese_500ms-401-1	60.017	1.0.0.76	1	-1368837126	Professional	2.0.10.353	2.0.10.353	05-17-2018	17-May-18 6:51:10 AM	16:51:10	2.0.10.248	14	3	1	4																																block3	explist														16													18	1	16													1		0	116	978954	1500		0	0	0	4	0	14	981720	0	5	2481	984201	1		0	15	984219	0		0	0	Thai_F2_mii315-5	0		0	0	980454	0	j	1252	981706	exproc	block3list	F2	mii	5	315
Assim_main_chinese_500ms	401	1	<?xml version="1.0"?>\n<Clock xmlns:dt="urn:schemas-microsoft-com:datatypes"><Description dt:dt="string">E-Prime Primary Realtime Clock</Description><StartTime><Timestamp dt:dt="int">0</Timestamp><DateUtc dt:dt="string">2018-05-17T06:51:10Z</DateUtc></StartTime><FrequencyChanges><FrequencyChange><Frequency dt:dt="r8">2742441</Frequency><Timestamp dt:dt="r8">71645429962</Timestamp><Current dt:dt="r8">0</Current><DateUtc dt:dt="string">2018-05-17T06:51:10Z</DateUtc></FrequencyChange></FrequencyChanges></Clock>\n	Assim_main_chinese_500ms-401-1	60.017	1.0.0.76	1	-1368837126	Professional	2.0.10.353	2.0.10.353	05-17-2018	17-May-18 6:51:10 AM	16:51:10	2.0.10.248	14	3	1	4																																block3	explist														17													14	1	17													1		0	117	985336	1499		0	0	0	4	0	14	986935	0	7	1008	987943	1		0	24	987968	0		0	0	Thai_F2_maa33-5	0		0	-1	986835	0	f	86	986921	exproc	block3list	F2	maa	5	33
Assim_main_chinese_500ms	401	1	<?xml version="1.0"?>\n<Clock xmlns:dt="urn:schemas-microsoft-com:datatypes"><Description dt:dt="string">E-Prime Primary Realtime Clock</Description><StartTime><Timestamp dt:dt="int">0</Timestamp><DateUtc dt:dt="string">2018-05-17T06:51:10Z</DateUtc></StartTime><FrequencyChanges><FrequencyChange><Frequency dt:dt="r8">2742441</Frequency><Timestamp dt:dt="r8">71645429962</Timestamp><Current dt:dt="r8">0</Current><DateUtc dt:dt="string">2018-05-17T06:51:10Z</DateUtc></FrequencyChange></FrequencyChanges></Clock>\n	Assim_main_chinese_500ms-401-1	60.017	1.0.0.76	1	-1368837126	Professional	2.0.10.353	2.0.10.353	05-17-2018	17-May-18 6:51:10 AM	16:51:10	2.0.10.248	14	3	1	4																																block3	explist														18													4	1	18													1		0	100	989068	1500		0	0	0	4	0	-1	993567	0	5	2090	995657	1		0	9	995666	0		0	0	Thai_F2_maa33-2	1		0	0	990568	2999		0	0	exproc	block3list	F2	maa	2	33
Assim_main_chinese_500ms	401	1	<?xml version="1.0"?>\n<Clock xmlns:dt="urn:schemas-microsoft-com:datatypes"><Description dt:dt="string">E-Prime Primary Realtime Clock</Description><StartTime><Timestamp dt:dt="int">0</Timestamp><DateUtc dt:dt="string">2018-05-17T06:51:10Z</DateUtc></StartTime><FrequencyChanges><FrequencyChange><Frequency dt:dt="r8">2742441</Frequency><Timestamp dt:dt="r8">71645429962</Timestamp><Current dt:dt="r8">0</Current><DateUtc dt:dt="string">2018-05-17T06:51:10Z</DateUtc></FrequencyChange></FrequencyChanges></Clock>\n	Assim_main_chinese_500ms-401-1	60.017	1.0.0.76	1	-1368837126	Professional	2.0.10.353	2.0.10.353	05-17-2018	17-May-18 6:51:10 AM	16:51:10	2.0.10.248	14	3	1	4																																block3	explist														19													5	1	19													1		1	116	996782	1500		0	0	0	4	0	-1	1001281	0	7	1911	1003192	1		0	21	1003214	0		0	0	Thai_F2_maa45-1	1		0	0	998282	2999		0	0	exproc	block3list	F2	maa	1	45
Assim_main_chinese_500ms	401	1	<?xml version="1.0"?>\n<Clock xmlns:dt="urn:schemas-microsoft-com:datatypes"><Description dt:dt="string">E-Prime Primary Realtime Clock</Description><StartTime><Timestamp dt:dt="int">0</Timestamp><DateUtc dt:dt="string">2018-05-17T06:51:10Z</DateUtc></StartTime><FrequencyChanges><FrequencyChange><Frequency dt:dt="r8">2742441</Frequency><Timestamp dt:dt="r8">71645429962</Timestamp><Current dt:dt="r8">0</Current><DateUtc dt:dt="string">2018-05-17T06:51:10Z</DateUtc></FrequencyChange></FrequencyChanges></Clock>\n	Assim_main_chinese_500ms-401-1	60.017	1.0.0.76	1	-1368837126	Professional	2.0.10.353	2.0.10.353	05-17-2018	17-May-18 6:51:10 AM	16:51:10	2.0.10.248	14	3	1	4																																block3	explist														20													12	1	20													1		0	116	1004330	1500		0	0	0	4	0	16	1006580	0	5	532	1007112	1		0	17	1007130	0		0	0	Thai_F2_maa241-5	0		0	0	1005830	0	f	734	1006564	exproc	block3list	F2	maa	5	241
Assim_main_chinese_500ms	401	1	<?xml version="1.0"?>\n<Clock xmlns:dt="urn:schemas-microsoft-com:datatypes"><Description dt:dt="string">E-Prime Primary Realtime Clock</Description><StartTime><Timestamp dt:dt="int">0</Timestamp><DateUtc dt:dt="string">2018-05-17T06:51:10Z</DateUtc></StartTime><FrequencyChanges><FrequencyChange><Frequency dt:dt="r8">2742441</Frequency><Timestamp dt:dt="r8">71645429962</Timestamp><Current dt:dt="r8">0</Current><DateUtc dt:dt="string">2018-05-17T06:51:10Z</DateUtc></FrequencyChange></FrequencyChanges></Clock>\n	Assim_main_chinese_500ms-401-1	60.017	1.0.0.76	1	-1368837126	Professional	2.0.10.353	2.0.10.353	05-17-2018	17-May-18 6:51:10 AM	16:51:10	2.0.10.248	15	1	1	5																																block1	explist														1	8	1	1																									1		0	93	1009912	1500		0	0	0	4	0	-1	1014411	0	1	1498	1015909	1		0	16	1015927	0		0	0	Thai_F1_maa315-3	1		0	0	1011412	2999		0	0	exproc	block1alist	F2	maa	3	315
Assim_main_chinese_500ms	401	1	<?xml version="1.0"?>\n<Clock xmlns:dt="urn:schemas-microsoft-com:datatypes"><Description dt:dt="string">E-Prime Primary Realtime Clock</Description><StartTime><Timestamp dt:dt="int">0</Timestamp><DateUtc dt:dt="string">2018-05-17T06:51:10Z</DateUtc></StartTime><FrequencyChanges><FrequencyChange><Frequency dt:dt="r8">2742441</Frequency><Timestamp dt:dt="r8">71645429962</Timestamp><Current dt:dt="r8">0</Current><DateUtc dt:dt="string">2018-05-17T06:51:10Z</DateUtc></FrequencyChange></FrequencyChanges></Clock>\n	Assim_main_chinese_500ms-401-1	60.017	1.0.0.76	1	-1368837126	Professional	2.0.10.353	2.0.10.353	05-17-2018	17-May-18 6:51:10 AM	16:51:10	2.0.10.248	15	1	1	5																																block1	explist														2	10	1	2																									1		0	83	1017010	1500		0	0	0	4	0	-1	1021509	0	2	8	1021517	1		0	25	1021542	0		0	0	Thai_F1_maa45-5	1		0	0	1018510	2999		0	0	exproc	block1alist	F2	maa	5	45
Assim_main_chinese_500ms	401	1	<?xml version="1.0"?>\n<Clock xmlns:dt="urn:schemas-microsoft-com:datatypes"><Description dt:dt="string">E-Prime Primary Realtime Clock</Description><StartTime><Timestamp dt:dt="int">0</Timestamp><DateUtc dt:dt="string">2018-05-17T06:51:10Z</DateUtc></StartTime><FrequencyChanges><FrequencyChange><Frequency dt:dt="r8">2742441</Frequency><Timestamp dt:dt="r8">71645429962</Timestamp><Current dt:dt="r8">0</Current><DateUtc dt:dt="string">2018-05-17T06:51:10Z</DateUtc></FrequencyChange></FrequencyChanges></Clock>\n	Assim_main_chinese_500ms-401-1	60.017	1.0.0.76	1	-1368837126	Professional	2.0.10.353	2.0.10.353	05-17-2018	17-May-18 6:51:10 AM	16:51:10	2.0.10.248	15	1	1	5																																block1	explist														3	7	1	3																									1		0	83	1022625	1500		0	0	0	4	0	-1	1027124	0	5	3134	1030258	1		0	15	1030273	0		0	0	Thai_F1_maa241-5	1		0	0	1024125	2999		0	0	exproc	block1alist	F2	maa	5	241
Assim_main_chinese_500ms	401	1	<?xml version="1.0"?>\n<Clock xmlns:dt="urn:schemas-microsoft-com:datatypes"><Description dt:dt="string">E-Prime Primary Realtime Clock</Description><StartTime><Timestamp dt:dt="int">0</Timestamp><DateUtc dt:dt="string">2018-05-17T06:51:10Z</DateUtc></StartTime><FrequencyChanges><FrequencyChange><Frequency dt:dt="r8">2742441</Frequency><Timestamp dt:dt="r8">71645429962</Timestamp><Current dt:dt="r8">0</Current><DateUtc dt:dt="string">2018-05-17T06:51:10Z</DateUtc></FrequencyChange></FrequencyChanges></Clock>\n	Assim_main_chinese_500ms-401-1	60.017	1.0.0.76	1	-1368837126	Professional	2.0.10.353	2.0.10.353	05-17-2018	17-May-18 6:51:10 AM	16:51:10	2.0.10.248	15	1	1	5																																block1	explist														4	6	1	4																									1		0	83	1031356	1499		0	0	0	4	0	15	1033589	0	2	2349	1035938	1		0	14	1035955	0		0	0	Thai_F1_maa21-5	0		1	-1	1032855	0	f	719	1033574	exproc	block1alist	F2	maa	5	21
Assim_main_chinese_500ms	401	1	<?xml version="1.0"?>\n<Clock xmlns:dt="urn:schemas-microsoft-com:datatypes"><Description dt:dt="string">E-Prime Primary Realtime Clock</Description><StartTime><Timestamp dt:dt="int">0</Timestamp><DateUtc dt:dt="string">2018-05-17T06:51:10Z</DateUtc></StartTime><FrequencyChanges><FrequencyChange><Frequency dt:dt="r8">2742441</Frequency><Timestamp dt:dt="r8">71645429962</Timestamp><Current dt:dt="r8">0</Current><DateUtc dt:dt="string">2018-05-17T06:51:10Z</DateUtc></FrequencyChange></FrequencyChanges></Clock>\n	Assim_main_chinese_500ms-401-1	60.017	1.0.0.76	1	-1368837126	Professional	2.0.10.353	2.0.10.353	05-17-2018	17-May-18 6:51:10 AM	16:51:10	2.0.10.248	15	1	1	5																																block1	explist														5	1	1	5																									1		0	116	1037071	1500		0	0	0	4	0	16	1039354	0	7	1312	1040666	1		0	19	1040687	0		0	0	Thai_F2_maa21-1	0		0	0	1038571	0	f	767	1039338	exproc	block1alist	F2	maa	1	21
Assim_main_chinese_500ms	401	1	<?xml version="1.0"?>\n<Clock xmlns:dt="urn:schemas-microsoft-com:datatypes"><Description dt:dt="string">E-Prime Primary Realtime Clock</Description><StartTime><Timestamp dt:dt="int">0</Timestamp><DateUtc dt:dt="string">2018-05-17T06:51:10Z</DateUtc></StartTime><FrequencyChanges><FrequencyChange><Frequency dt:dt="r8">2742441</Frequency><Timestamp dt:dt="r8">71645429962</Timestamp><Current dt:dt="r8">0</Current><DateUtc dt:dt="string">2018-05-17T06:51:10Z</DateUtc></FrequencyChange></FrequencyChanges></Clock>\n	Assim_main_chinese_500ms-401-1	60.017	1.0.0.76	1	-1368837126	Professional	2.0.10.353	2.0.10.353	05-17-2018	17-May-18 6:51:10 AM	16:51:10	2.0.10.248	15	1	1	5																																block1	explist														6	9	1	6																									1		0	116	1041803	1500		0	0	0	4	0	14	1044852	0	2	982	1045834	1		0	17	1045852	0		0	0	Thai_F1_maa33-5	0		0	0	1043303	0	f	1535	1044838	exproc	block1alist	F2	maa	5	33
Assim_main_chinese_500ms	401	1	<?xml version="1.0"?>\n<Clock xmlns:dt="urn:schemas-microsoft-com:datatypes"><Description dt:dt="string">E-Prime Primary Realtime Clock</Description><StartTime><Timestamp dt:dt="int">0</Timestamp><DateUtc dt:dt="string">2018-05-17T06:51:10Z</DateUtc></StartTime><FrequencyChanges><FrequencyChange><Frequency dt:dt="r8">2742441</Frequency><Timestamp dt:dt="r8">71645429962</Timestamp><Current dt:dt="r8">0</Current><DateUtc dt:dt="string">2018-05-17T06:51:10Z</DateUtc></FrequencyChange></FrequencyChanges></Clock>\n	Assim_main_chinese_500ms-401-1	60.017	1.0.0.76	1	-1368837126	Professional	2.0.10.353	2.0.10.353	05-17-2018	17-May-18 6:51:10 AM	16:51:10	2.0.10.248	15	1	1	5																																block1	explist														7	3	1	7																									1		1	99	1046951	1500		0	0	0	4	0	-1	1051450	0	7	1461	1052911	1		0	18	1052933	0		0	0	Thai_F2_maa315-2	1		0	0	1048451	2999		0	0	exproc	block1alist	F2	maa	2	315
Assim_main_chinese_500ms	401	1	<?xml version="1.0"?>\n<Clock xmlns:dt="urn:schemas-microsoft-com:datatypes"><Description dt:dt="string">E-Prime Primary Realtime Clock</Description><StartTime><Timestamp dt:dt="int">0</Timestamp><DateUtc dt:dt="string">2018-05-17T06:51:10Z</DateUtc></StartTime><FrequencyChanges><FrequencyChange><Frequency dt:dt="r8">2742441</Frequency><Timestamp dt:dt="r8">71645429962</Timestamp><Current dt:dt="r8">0</Current><DateUtc dt:dt="string">2018-05-17T06:51:10Z</DateUtc></FrequencyChange></FrequencyChanges></Clock>\n	Assim_main_chinese_500ms-401-1	60.017	1.0.0.76	1	-1368837126	Professional	2.0.10.353	2.0.10.353	05-17-2018	17-May-18 6:51:10 AM	16:51:10	2.0.10.248	15	1	1	5																																block1	explist														8	5	1	8																									0		1	116	1054049	1500	d	1264	1055313	1	4	0	-1	1058548	0	4	2881	1061429	1		0	15	1061447	0		0	0	Thai_F2_maa45-1	1		0	0	1055549	2999		0	0	exproc	block1alist	F2	maa	1	45
Assim_main_chinese_500ms	401	1	<?xml version="1.0"?>\n<Clock xmlns:dt="urn:schemas-microsoft-com:datatypes"><Description dt:dt="string">E-Prime Primary Realtime Clock</Description><StartTime><Timestamp dt:dt="int">0</Timestamp><DateUtc dt:dt="string">2018-05-17T06:51:10Z</DateUtc></StartTime><FrequencyChanges><FrequencyChange><Frequency dt:dt="r8">2742441</Frequency><Timestamp dt:dt="r8">71645429962</Timestamp><Current dt:dt="r8">0</Current><DateUtc dt:dt="string">2018-05-17T06:51:10Z</DateUtc></FrequencyChange></FrequencyChanges></Clock>\n	Assim_main_chinese_500ms-401-1	60.017	1.0.0.76	1	-1368837126	Professional	2.0.10.353	2.0.10.353	05-17-2018	17-May-18 6:51:10 AM	16:51:10	2.0.10.248	15	1	1	5																																block1	explist														9	2	1	9																									0		0	133	1062580	1500	s	1239	1063819	0	4	0	-1	1067079	0	5	1845	1068924	1		0	21	1068945	0		0	0	Thai_F2_maa241-3	1		0	0	1064080	2999		0	0	exproc	block1alist	F2	maa	3	241
Assim_main_chinese_500ms	401	1	<?xml version="1.0"?>\n<Clock xmlns:dt="urn:schemas-microsoft-com:datatypes"><Description dt:dt="string">E-Prime Primary Realtime Clock</Description><StartTime><Timestamp dt:dt="int">0</Timestamp><DateUtc dt:dt="string">2018-05-17T06:51:10Z</DateUtc></StartTime><FrequencyChanges><FrequencyChange><Frequency dt:dt="r8">2742441</Frequency><Timestamp dt:dt="r8">71645429962</Timestamp><Current dt:dt="r8">0</Current><DateUtc dt:dt="string">2018-05-17T06:51:10Z</DateUtc></FrequencyChange></FrequencyChanges></Clock>\n	Assim_main_chinese_500ms-401-1	60.017	1.0.0.76	1	-1368837126	Professional	2.0.10.353	2.0.10.353	05-17-2018	17-May-18 6:51:10 AM	16:51:10	2.0.10.248	15	1	1	5																																block1	explist														10	4	1	10																									0		0	117	1070062	1499	f	1322	1071384	0	4	0	-1	1074560	0	5	1982	1076542	1		0	15	1076560	0		0	0	Thai_F2_maa33-2	1		0	-1	1071561	2999		0	0	exproc	block1alist	F2	maa	2	33
Assim_main_chinese_500ms	401	1	<?xml version="1.0"?>\n<Clock xmlns:dt="urn:schemas-microsoft-com:datatypes"><Description dt:dt="string">E-Prime Primary Realtime Clock</Description><StartTime><Timestamp dt:dt="int">0</Timestamp><DateUtc dt:dt="string">2018-05-17T06:51:10Z</DateUtc></StartTime><FrequencyChanges><FrequencyChange><Frequency dt:dt="r8">2742441</Frequency><Timestamp dt:dt="r8">71645429962</Timestamp><Current dt:dt="r8">0</Current><DateUtc dt:dt="string">2018-05-17T06:51:10Z</DateUtc></FrequencyChange></FrequencyChanges></Clock>\n	Assim_main_chinese_500ms-401-1	60.017	1.0.0.76	1	-1368837126	Professional	2.0.10.353	2.0.10.353	05-17-2018	17-May-18 6:51:10 AM	16:51:10	2.0.10.248	15	1	1	5																																block1	explist														11				9	1	1																						0		0	99	1077659	1500	f	1481	1079140	1	4	0	-1	1082158	0	4	2427	1084585	1		0	21	1084607	0		0	0	Thai_F2_mii33-5	1		0	0	1079159	2999		0	0	exproc	block1blist	F2	mii	5	33
Assim_main_chinese_500ms	401	1	<?xml version="1.0"?>\n<Clock xmlns:dt="urn:schemas-microsoft-com:datatypes"><Description dt:dt="string">E-Prime Primary Realtime Clock</Description><StartTime><Timestamp dt:dt="int">0</Timestamp><DateUtc dt:dt="string">2018-05-17T06:51:10Z</DateUtc></StartTime><FrequencyChanges><FrequencyChange><Frequency dt:dt="r8">2742441</Frequency><Timestamp dt:dt="r8">71645429962</Timestamp><Current dt:dt="r8">0</Current><DateUtc dt:dt="string">2018-05-17T06:51:10Z</DateUtc></FrequencyChange></FrequencyChanges></Clock>\n	Assim_main_chinese_500ms-401-1	60.017	1.0.0.76	1	-1368837126	Professional	2.0.10.353	2.0.10.353	05-17-2018	17-May-18 6:51:10 AM	16:51:10	2.0.10.248	15	1	1	5																																block1	explist														12				1	1	2																						1		0	83	1085690	1500		0	0	0	4	0	18	1087490	0	5	932	1088422	1		0	14	1088440	0		0	0	Thai_F2_mii21-2	0		0	0	1087190	0	f	282	1087472	exproc	block1blist	F2	mii	2	21
